State,Time (s),Time (ms),Pressure (Pa),Temperature ©,Temperature (C/100),Accel,Accel X,Accel Y,Accel Z,Batt Sense,Cut Sense 1,Cut Sense 2,Current Sense,Photoresistor
0,5.997,5997,102526,31.93172119,3193.172119,1.003632467,0.162598,0.814453,-0.563477,578,578,580,446,100
0,6.483,6483,102520,31.85689209,3185.689209,0.999251302,0.163574,0.810547,-0.561035,579,578,581,445,100
0,6.566,6566,102521,31.89524658,3189.524658,0.998776014,0.160645,0.810547,-0.561035,580,580,581,443,97
0,6.649,6649,102523,31.92224609,3192.224609,1.00103166,0.160645,0.812988,-0.561523,579,579,581,444,99
0,6.733,6733,102525,31.94340332,3194.340332,0.996453846,0.162109,0.809082,-0.558594,579,580,580,444,97
0,6.816,6816,102527,31.95683594,3195.683594,0.996729722,0.159668,0.80957,-0.559082,577,582,581,445,99
0,6.899,6899,102524,31.96611816,3196.611816,0.997396289,0.158691,0.80957,-0.560547,580,579,580,444,98
0,6.982,6982,102525,31.97325684,3197.325684,0.999250662,0.161133,0.811035,-0.561035,579,580,581,444,98
0,7.066,7066,102527,31.97942139,3197.942139,0.998149521,0.160156,0.810547,-0.560059,580,580,580,445,99
0,7.15,7150,102528,31.98318604,3198.318604,0.995736184,0.15918,0.808105,-0.55957,579,580,582,443,98
0,7.233,7233,102524,31.98454834,3198.454834,0.997224244,0.164551,0.810547,-0.557129,577,578,579,446,97
0,7.316,7316,102529,31.98870361,3198.870361,0.998232649,0.163574,0.812988,-0.555664,581,577,581,445,99
0,7.399,7399,102527,31.9879248,3198.79248,0.997777202,0.163086,0.811523,-0.557129,579,578,580,446,97
0,7.482,7482,102528,31.99026123,3199.026123,0.997664835,0.164062,0.811523,-0.556641,578,580,580,442,99
0,7.565,7565,102525,31.98967529,3198.967529,0.996103302,0.164062,0.808594,-0.558105,579,580,582,445,97
0,7.649,7649,102534,31.99272705,3199.272705,0.995519929,0.163086,0.809082,-0.556641,579,580,581,442,98
0,7.732,7732,102527,31.99104004,3199.104004,0.995961214,0.162598,0.810059,-0.556152,579,580,581,445,98
0,7.816,7816,102525,31.98935303,3198.935303,0.996474348,0.164062,0.810059,-0.556641,579,580,582,445,98
0,7.899,7899,102528,31.99084473,3199.084473,0.997777202,0.163086,0.811523,-0.557129,579,579,581,442,98
0,7.982,7982,102527,31.99155762,3199.155762,0.993907,0.163086,0.808105,-0.555176,578,579,582,444,98
0,8.065,8065,102526,31.99013184,3199.013184,0.996269115,0.161133,0.810059,-0.557129,578,579,582,444,98
0,8.148,8148,102524,31.98883301,3198.883301,0.994156556,0.163086,0.809082,-0.554199,580,580,579,444,98
0,8.231,8231,102527,31.99039062,3199.039062,0.998163363,0.162109,0.811523,-0.558105,579,580,581,444,98
0,8.315,8315,102530,31.98643066,3198.643066,0.992921172,0.163574,0.807129,-0.554688,579,578,580,444,97
0,8.398,8398,102529,31.98772949,3198.772949,0.995926839,0.161621,0.810547,-0.555664,580,580,581,445,96
0,8.481,8481,102529,31.98610596,3198.610596,0.995768602,0.163086,0.810059,-0.555664,580,579,581,445,98
0,8.564,8564,102532,31.98727539,3198.727539,0.994963712,0.162109,0.808594,-0.556641,581,580,581,444,95
0,8.648,8648,102528,31.98584717,3198.584717,0.995325311,0.161133,0.80957,-0.556152,580,579,581,444,98
0,8.731,8731,102530,31.98604248,3198.604248,0.996324044,0.161621,0.811035,-0.555664,579,579,582,446,97
0,8.814,8814,102528,31.98493896,3198.493896,0.993263204,0.163086,0.806641,-0.556152,578,581,581,446,97
0,8.898,8898,102532,31.98247314,3198.247314,0.992645755,0.161133,0.807617,-0.554199,578,580,582,443,96
0,8.981,8981,102526,31.98266602,3198.266602,0.996948495,0.162109,0.811035,-0.556641,579,580,581,444,97
0,9.063,9063,102530,31.98091553,3198.091553,0.992431987,0.161621,0.808594,-0.552246,580,580,581,444,98
0,9.147,9147,102531,31.97851318,3197.851318,0.996995064,0.164062,0.811035,-0.556152,580,579,582,444,96
0,9.231,9231,102525,31.9785791,3197.85791,0.994932002,0.163086,0.811035,-0.552734,577,578,581,444,98
0,9.314,9314,102530,31.97799561,3197.799561,0.998664892,0.164551,0.812988,-0.556152,580,579,581,444,95
0,9.398,9398,102527,31.97740967,3197.740967,0.997433726,0.162109,0.813965,-0.553223,580,578,582,444,96
0,9.481,9481,102531,31.97572266,3197.572266,0.994774653,0.165039,0.808105,-0.556152,578,581,580,443,96
0,9.564,9564,102530,31.97416504,3197.416504,0.999845116,0.161133,0.814453,-0.557129,579,581,581,446,96
0,9.647,9647,102527,31.97319092,3197.319092,0.996165631,0.163086,0.810547,-0.555664,579,580,582,443,97
0,9.73,9730,102529,31.97306152,3197.306152,0.995747421,0.160645,0.811523,-0.554199,579,580,580,445,96
0,9.814,9814,102533,31.97020752,3197.020752,0.993660104,0.160156,0.810059,-0.552734,580,580,582,442,95
0,9.897,9897,102525,31.96890869,3196.890869,0.994067614,0.164062,0.808105,-0.555176,580,580,581,444,96
0,9.981,9981,102529,31.96773926,3196.773926,0.995570935,0.164551,0.811523,-0.552734,579,579,581,444,97
0,10.064,10064,102530,31.96709229,3196.709229,0.994201974,0.162598,0.80957,-0.553711,579,580,580,443,96
0,10.147,10147,102526,31.96663574,3196.663574,0.993688487,0.162109,0.811035,-0.550781,579,580,580,444,95
0,10.23,10230,102528,31.96313232,3196.313232,0.994249733,0.162598,0.807617,-0.556641,581,580,581,443,97
0,10.313,10313,102528,31.96300293,3196.300293,0.99455464,0.160645,0.810059,-0.554199,580,580,581,444,95
0,10.396,10396,102527,31.96352051,3196.352051,0.995905346,0.161621,0.811523,-0.554199,582,580,579,446,96
0,10.479,10479,102532,31.96137939,3196.137939,0.994508022,0.161133,0.80957,-0.554688,579,581,581,444,96
0,10.562,10562,102525,31.95768066,3195.768066,0.99288477,0.160156,0.808105,-0.554199,580,579,581,444,95
0,10.645,10645,102529,31.95813477,3195.813477,0.995859366,0.162109,0.811035,-0.554688,580,580,581,444,95
0,10.729,10729,102527,31.95573486,3195.573486,0.993004552,0.161133,0.810059,-0.55127,580,578,579,446,96
0,10.812,10812,102531,31.95417725,3195.417725,0.990274729,0.159668,0.805664,-0.553223,579,578,582,446,95
0,10.895,10895,102533,31.95359131,3195.359131,0.995509573,0.164062,0.810547,-0.554199,580,581,579,443,97
0,10.978,10978,102526,31.94969727,3194.969727,0.992592853,0.163086,0.806152,-0.555664,579,581,582,444,95
0,11.061,11061,102528,31.94917969,3194.917969,0.995047315,0.164551,0.810547,-0.553223,580,580,581,445,96
0,11.144,11144,102528,31.94781494,3194.781494,0.995090851,0.161621,0.811523,-0.552734,579,580,584,445,96
0,11.228,11228,102529,31.94677734,3194.677734,0.996806349,0.158203,0.813965,-0.553223,579,579,581,445,95
0,11.311,11311,102528,31.94489502,3194.489502,0.99393027,0.162598,0.80957,-0.553223,580,579,581,446,95
0,11.394,11394,102526,31.94561035,3194.561035,0.994600203,0.162598,0.810059,-0.553711,580,581,582,444,96
0,11.477,11477,102530,31.9424292,3194.24292,0.997345532,0.162109,0.811523,-0.556641,580,579,582,444,94
0,11.561,11561,102528,31.94113037,3194.113037,0.994819869,0.161621,0.811523,-0.552246,580,579,581,445,96
0,11.644,11644,102527,31.93885986,3193.885986,0.994429072,0.160645,0.80957,-0.554688,579,580,582,441,95
0,11.727,11727,102528,31.93840576,3193.840576,0.994621628,0.162598,0.809082,-0.555176,580,580,582,446,96
0,11.811,11811,102532,31.93619873,3193.619873,0.996291517,0.160645,0.811523,-0.555176,578,579,581,443,95
0,11.894,11894,102531,31.9348999,3193.48999,0.992918849,0.161133,0.807617,-0.554688,579,578,582,444,96
0,11.978,11978,102528,31.93392822,3193.392822,0.99378817,0.158203,0.808594,-0.555664,579,581,581,445,95
0,12.061,12061,102529,31.93197998,3193.197998,0.99704642,0.158691,0.8125,-0.555664,579,580,580,446,95
0,12.145,12145,102531,31.92990234,3192.990234,0.995144447,0.162598,0.810059,-0.554688,580,580,581,442,96
0,12.229,12229,102533,31.92808594,3192.808594,0.996815852,0.160645,0.8125,-0.554688,582,580,581,443,94
0,12.312,12312,102532,31.92717773,3192.717773,0.99589406,0.160645,0.811035,-0.555176,579,578,581,446,95
0,12.395,12395,102533,31.92289551,3192.289551,0.993310172,0.159668,0.810059,-0.552246,580,579,581,445,94
0,12.479,12479,102529,31.92380371,3192.380371,0.994714259,0.164062,0.80957,-0.554199,579,577,581,447,95
0,12.562,12562,102529,31.92321777,3192.321777,0.994746436,0.162598,0.80957,-0.554688,580,579,582,444,96
0,12.645,12645,102527,31.9225708,3192.25708,0.993136101,0.160156,0.809082,-0.553223,580,579,581,443,95
0,12.729,12729,102531,31.91932373,3191.932373,0.99396343,0.161133,0.80957,-0.553711,578,580,580,446,95
0,12.812,12812,102529,31.91776611,3191.776611,0.994622501,0.160156,0.80957,-0.555176,579,581,581,443,95
0,12.895,12895,102530,31.91731201,3191.731201,0.995554767,0.161133,0.811523,-0.553711,582,581,581,445,95
0,12.979,12979,102528,31.91302979,3191.302979,0.993168652,0.161133,0.808594,-0.553711,578,580,581,444,94
0,13.062,13062,102530,31.91309326,3191.309326,0.995972894,0.161133,0.811035,-0.555176,581,581,580,444,94
0,13.145,13145,102531,31.91186035,3191.186035,0.994560787,0.158203,0.810547,-0.554199,581,580,582,444,95
0,13.228,13228,102529,31.90913574,3190.913574,0.996973608,0.161621,0.8125,-0.554688,580,579,581,445,94
0,13.311,13311,102531,31.90809814,3190.809814,0.991818372,0.162598,0.806641,-0.553711,579,580,580,443,94
0,13.394,13394,102528,31.90647461,3190.647461,0.996636596,0.162109,0.812988,-0.553223,579,582,582,444,95
0,13.477,13477,102528,31.90375,3190.375,0.992896665,0.161133,0.808594,-0.553223,580,580,582,445,96
0,13.561,13561,102526,31.90141357,3190.141357,0.993407388,0.162598,0.808594,-0.553711,581,580,580,445,93
0,13.644,13644,102531,31.90238525,3190.238525,0.995692692,0.165039,0.80957,-0.555664,581,580,583,446,95
0,13.727,13727,102528,31.90193115,3190.193115,0.99417984,0.160645,0.808594,-0.555664,580,580,582,443,94
0,13.811,13811,102529,31.89751953,3189.751953,0.995996607,0.163574,0.80957,-0.556641,580,581,584,444,95
0,13.894,13894,102528,31.8981665,3189.81665,0.99759614,0.162109,0.8125,-0.555664,578,580,581,444,93
0,13.977,13977,102526,31.89583008,3189.583008,0.996051961,0.161621,0.811035,-0.555176,580,580,582,445,94
0,14.061,14061,102528,31.89284668,3189.284668,0.997643714,0.164062,0.8125,-0.555176,580,581,581,446,93
0,14.144,14144,102530,31.89174316,3189.174316,0.994985281,0.161621,0.810059,-0.554688,580,579,582,443,95
0,14.227,14227,102530,31.88934082,3188.934082,0.996256837,0.162109,0.811523,-0.554688,579,581,582,444,93
0,14.311,14311,102532,31.88804199,3188.804199,0.995336778,0.162109,0.810059,-0.555176,580,580,581,442,95
0,14.394,14394,102529,31.88694092,3188.694092,0.992745381,0.157715,0.809082,-0.553223,580,581,582,444,94
0,14.478,14478,102528,31.88466797,3188.466797,0.992832434,0.164062,0.808594,-0.552246,581,579,581,444,95
0,14.561,14561,102529,31.88369385,3188.369385,0.992929449,0.162109,0.808105,-0.553711,579,580,580,444,94
0,14.644,14644,102533,31.88239746,3188.239746,0.997404006,0.162598,0.8125,-0.555176,579,582,582,444,94
0,14.727,14727,102528,31.88096924,3188.096924,0.995189579,0.162109,0.810547,-0.554199,579,581,582,443,95
0,14.811,14811,102528,31.87876221,3187.876221,0.99256171,0.15918,0.80957,-0.551758,580,579,581,444,95
0,14.894,14894,102530,31.8773999,3187.73999,0.992853176,0.164062,0.807617,-0.553711,581,581,581,445,95
0,14.977,14977,102530,31.87324707,3187.324707,0.993204238,0.159668,0.808594,-0.554199,582,581,581,446,91
0,15.06,15060,102532,31.87370117,3187.370117,0.99381835,0.163574,0.80957,-0.552734,579,581,581,445,93
0,15.143,15143,102532,31.87233643,3187.233643,0.993759444,0.163086,0.808594,-0.554199,581,580,582,447,95
0,15.226,15226,102531,31.87013184,3187.013184,0.994523092,0.159668,0.810547,-0.553711,579,578,581,443,93
0,15.309,15309,102531,31.86883301,3186.883301,0.994343269,0.163574,0.810547,-0.552246,581,579,581,444,96
0,15.392,15392,102533,31.86519775,3186.519775,0.993920081,0.164062,0.808594,-0.554199,579,582,582,445,94
0,15.475,15475,102530,31.86500244,3186.500244,0.994973973,0.163086,0.809082,-0.555664,579,580,580,443,93
0,15.558,15558,102530,31.86214844,3186.214844,0.995396012,0.160645,0.809082,-0.557129,579,581,583,441,94
0,15.641,15641,102529,31.86266602,3186.266602,0.99555517,0.163574,0.811035,-0.553711,580,582,582,443,93
0,15.725,15725,102530,31.8587085,3185.87085,0.989524633,0.161621,0.804688,-0.552734,579,581,582,445,93
0,15.808,15808,102530,31.85708496,3185.708496,0.991617524,0.161621,0.808594,-0.550781,581,580,581,444,94
0,15.891,15891,102530,31.85734619,3185.734619,0.995170228,0.162109,0.811523,-0.552734,580,579,581,444,93
0,15.974,15974,102523,31.85455566,3185.455566,0.998200045,0.162598,0.813477,-0.555176,580,580,582,444,94
0,16.057,16057,102532,31.85306152,3185.306152,0.993648061,0.164062,0.808594,-0.553711,581,579,582,444,93
0,16.14,16140,102527,31.85234863,3185.234863,0.997769991,0.161621,0.813477,-0.554688,579,581,583,446,94
0,16.223,16223,102530,31.85189453,3185.189453,0.99393523,0.165039,0.809082,-0.553223,580,581,581,444,94
0,16.306,16306,102530,31.84748047,3184.748047,0.99427171,0.159668,0.80957,-0.554688,582,582,583,444,95
0,16.389,16389,102530,31.84741455,3184.741455,0.994487793,0.161133,0.810547,-0.553223,579,582,582,444,93
0,16.472,16472,102530,31.84650635,3184.650635,0.994633887,0.163574,0.80957,-0.554199,581,580,582,445,93
0,16.555,16555,102531,31.84339111,3184.339111,0.995826267,0.161133,0.811523,-0.554199,580,579,581,445,93
0,16.638,16638,102531,31.84196533,3184.196533,0.994042657,0.161621,0.80957,-0.553711,579,581,581,446,93
0,16.721,16721,102529,31.83878418,3183.878418,0.996359756,0.160156,0.811035,-0.556152,580,581,582,445,93
0,16.804,16804,102525,31.83768066,3183.768066,0.992942785,0.160645,0.809082,-0.552734,580,579,582,443,93
0,16.887,16887,102531,31.83592773,3183.592773,0.994838509,0.161621,0.810547,-0.553711,580,580,580,445,94
0,16.97,16970,102528,31.83553955,3183.553955,0.993808588,0.166016,0.810059,-0.55127,580,580,581,445,93
0,17.053,17053,102534,31.83411133,3183.411133,0.996928785,0.164551,0.811523,-0.555176,581,580,581,444,94
0,17.137,17137,102533,31.82905029,3182.905029,0.990025636,0.161621,0.806641,-0.550781,581,582,582,444,92
0,17.22,17220,102527,31.8304126,3183.04126,0.996215188,0.165039,0.810547,-0.555176,580,581,581,445,94
0,17.303,17303,102531,31.82638916,3182.638916,0.995125727,0.160156,0.811523,-0.553223,581,581,580,445,93
0,17.386,17386,102529,31.82684326,3182.684326,0.994408525,0.163086,0.810059,-0.553223,580,581,581,445,92
0,17.47,17470,102529,31.82366211,3182.366211,0.993913782,0.160156,0.811035,-0.551758,581,580,581,443,93
0,17.553,17553,102530,31.82405273,3182.405273,0.994281902,0.163086,0.80957,-0.553711,581,579,581,445,93
0,17.637,17637,102535,31.81937988,3181.937988,0.993069167,0.163086,0.809082,-0.552246,582,582,581,445,92
0,17.72,17720,102529,31.81911865,3181.911865,0.996484824,0.160156,0.811523,-0.555664,579,578,581,446,94
0,17.803,17803,102529,31.81827637,3181.827637,0.994134086,0.161133,0.808105,-0.556152,580,581,582,444,94
0,17.886,17886,102530,31.81373291,3181.373291,0.993082591,0.164551,0.807129,-0.554688,580,580,583,443,93
0,17.969,17969,102529,31.81243408,3181.243408,0.995236148,0.161621,0.811035,-0.553711,579,581,581,444,93
0,18.052,18052,102531,31.81217529,3181.217529,0.991126744,0.162598,0.807129,-0.551758,582,580,582,445,92
0,18.135,18135,102529,31.80983887,3180.983887,0.992464949,0.162598,0.808105,-0.552734,579,580,581,443,94
0,18.218,18218,102532,31.80970947,3180.970947,0.992305353,0.161621,0.808105,-0.552734,580,582,581,445,93
0,18.301,18301,102532,31.80717773,3180.717773,0.995409919,0.163574,0.811523,-0.552734,579,581,583,444,93
0,18.385,18385,102528,31.80523193,3180.523193,0.993486975,0.160645,0.809082,-0.553711,582,579,581,444,93
0,18.468,18468,102532,31.80321777,3180.321777,0.993705467,0.162109,0.810059,-0.552246,579,582,582,444,94
0,18.552,18552,102529,31.80133789,3180.133789,0.993340885,0.161133,0.807129,-0.556152,578,579,581,444,92
0,18.636,18636,102531,31.79984375,3179.984375,0.991693591,0.160156,0.806641,-0.554199,580,580,582,442,93
0,18.72,18720,102530,31.79886963,3179.886963,0.993599575,0.162109,0.808594,-0.554199,580,580,583,446,92
0,18.803,18803,102532,31.7950415,3179.50415,0.994646397,0.162109,0.810547,-0.553223,581,580,582,445,93
0,18.886,18886,102535,31.79380859,3179.380859,0.996693208,0.165527,0.811035,-0.555176,579,579,580,447,93
0,18.969,18969,102533,31.79088867,3179.088867,0.997302485,0.160156,0.811523,-0.557129,581,579,582,444,92
0,19.052,19052,102532,31.79114746,3179.114746,0.991285001,0.161133,0.807617,-0.551758,582,582,581,444,92
0,19.135,19135,102530,31.79257568,3179.257568,0.993533702,0.160156,0.80957,-0.553223,581,580,582,448,92
0,19.219,19219,102532,31.78712402,3178.712402,0.996115451,0.159668,0.8125,-0.553711,580,581,580,445,93
0,19.302,19302,102527,31.78491699,3178.491699,0.994358277,0.157715,0.810059,-0.554688,581,581,582,447,91
0,19.385,19385,102528,31.78270996,3178.270996,0.994985281,0.161621,0.810059,-0.554688,579,580,581,443,93
0,19.468,19468,102533,31.78290527,3178.290527,0.995280982,0.161621,0.809082,-0.556641,579,582,582,445,92
0,19.551,19551,102534,31.78128174,3178.128174,0.994374498,0.162109,0.810547,-0.552734,580,579,582,444,93
0,19.634,19634,102528,31.78095703,3178.095703,0.995700955,0.161133,0.811035,-0.554688,580,580,581,445,91
0,19.717,19717,102533,31.77563721,3177.563721,0.995203749,0.163086,0.811035,-0.553223,582,580,580,446,92
0,19.802,19802,102531,31.77310547,3177.310547,0.99401111,0.160645,0.810059,-0.553223,581,581,581,442,93
0,19.886,19886,102531,31.77141846,3177.141846,0.992682158,0.159668,0.807617,-0.554688,580,579,582,445,92
0,19.969,19969,102530,31.77141846,3177.141846,0.995862554,0.159668,0.811523,-0.554688,581,580,580,445,92
0,20.052,20052,102532,31.7688208,3176.88208,0.99458108,0.162598,0.811035,-0.552246,582,582,583,444,94
0,20.135,20135,102536,31.76999023,3176.999023,0.995609056,0.162109,0.810059,-0.555664,580,581,581,447,94
0,20.219,20219,102527,31.7653833,3176.53833,0.995521661,0.162598,0.811523,-0.553223,580,580,581,445,91
0,20.303,20303,102530,31.76505859,3176.505859,0.997833523,0.164551,0.813965,-0.553223,579,581,580,445,92
0,20.386,20386,102528,31.76369385,3176.369385,0.992487715,0.162598,0.807129,-0.554199,580,580,581,443,92
0,20.47,20470,102533,31.76194336,3176.194336,0.995633868,0.161621,0.811523,-0.553711,581,580,584,444,91
0,20.553,20553,102530,31.76006104,3176.006104,0.990981001,0.160156,0.808105,-0.550781,580,581,581,444,92
0,20.636,20636,102529,31.7579834,3175.79834,0.998301311,0.160645,0.812988,-0.556641,580,579,582,444,93
0,20.72,20720,102531,31.75584229,3175.584229,0.995496683,0.160645,0.810547,-0.555176,581,581,581,445,92
0,20.803,20803,102529,31.75389404,3175.389404,0.992882323,0.158691,0.810059,-0.551758,579,581,581,445,91
0,20.886,20886,102527,31.75240234,3175.240234,0.998248786,0.164551,0.813477,-0.554688,582,581,582,444,93
0,20.969,20969,102530,31.75454346,3175.454346,0.996006149,0.162109,0.810547,-0.555664,581,579,580,446,92
0,21.052,21052,102530,31.74844238,3174.844238,0.996098489,0.161133,0.811523,-0.554688,580,581,582,444,92
0,21.135,21135,102531,31.74818359,3174.818359,0.989718298,0.161133,0.804688,-0.553223,579,580,581,444,92
0,21.218,21218,102531,31.7470166,3174.70166,0.996033027,0.164062,0.811523,-0.553711,580,581,582,444,92
0,21.301,21301,102531,31.74584717,3174.584717,0.998312731,0.164062,0.812988,-0.555664,580,580,581,443,92
0,21.384,21384,102532,31.74175781,3174.175781,0.995554767,0.161133,0.811523,-0.553711,580,582,582,446,92
0,21.468,21468,102530,31.74286133,3174.286133,0.992863788,0.160156,0.809082,-0.552734,582,580,582,446,91
0,21.551,21551,102531,31.7391626,3173.91626,0.993243327,0.162598,0.810059,-0.55127,579,580,582,445,94
0,21.634,21634,102531,31.73747559,3173.747559,0.994169311,0.161621,0.810059,-0.553223,579,581,582,446,92
0,21.717,21717,102528,31.73643799,3173.643799,0.996800576,0.162109,0.811523,-0.555664,579,581,580,446,92
0,21.801,21801,102530,31.73098633,3173.098633,0.994295058,0.161621,0.810547,-0.552734,581,582,581,444,92
0,21.885,21885,102529,31.73001221,3173.001221,0.992347704,0.157715,0.808594,-0.553223,579,580,583,444,92
0,21.969,21969,102530,31.7283252,3172.83252,0.991636128,0.161621,0.807617,-0.552246,580,580,581,444,93
0,22.052,22052,102527,31.72735107,3172.735107,0.994963712,0.162109,0.808594,-0.556641,581,581,581,447,92
0,22.135,22135,102529,31.72572754,3172.572754,0.994513547,0.158691,0.810059,-0.554688,580,579,580,445,91
0,22.218,22218,102532,31.7226123,3172.26123,0.995125727,0.160156,0.811523,-0.553223,579,581,582,445,91
0,22.301,22301,102531,31.72365234,3172.365234,0.993601572,0.159668,0.809082,-0.554199,581,582,582,446,90
0,22.384,22384,102530,31.72164062,3172.164062,0.995768917,0.160645,0.810547,-0.555664,581,582,580,446,91
0,22.467,22467,102529,31.71845947,3171.845947,0.99559863,0.161133,0.80957,-0.556641,581,580,582,445,93
0,22.55,22550,102529,31.71631836,3171.631836,0.996941741,0.160645,0.812988,-0.554199,580,579,582,446,91
0,22.633,22633,102529,31.71657715,3171.657715,0.994350193,0.160156,0.80957,-0.554688,579,580,580,443,92
0,22.716,22716,102529,31.71411133,3171.411133,0.991560472,0.158691,0.808105,-0.552246,580,582,583,444,92
0,22.8,22800,102530,31.71008789,3171.008789,0.99282963,0.161621,0.809082,-0.552246,580,581,582,445,92
0,22.883,22883,102532,31.7099585,3170.99585,0.99417984,0.160645,0.808594,-0.555664,580,580,582,445,93
0,22.966,22966,102532,31.70742676,3170.742676,0.991922926,0.160156,0.808594,-0.551758,580,581,582,445,92
0,23.05,23050,102532,31.70632324,3170.632324,0.996238559,0.162109,0.8125,-0.553223,580,580,582,446,91
0,23.134,23134,102532,31.70573975,3170.573975,0.992963765,0.160645,0.808105,-0.554199,580,581,581,446,92
0,23.217,23217,102531,31.70249512,3170.249512,0.995090851,0.161621,0.811523,-0.552734,580,581,583,444,92
0,23.3,23300,102532,31.701521,3170.1521,0.99000131,0.162109,0.805176,-0.552734,582,579,582,447,93
0,23.383,23383,102530,31.70074219,3170.074219,0.990378567,0.159668,0.807129,-0.55127,580,581,581,445,92
0,23.467,23467,102532,31.69691162,3169.691162,0.994236726,0.163574,0.809082,-0.554199,580,582,582,444,91
0,23.55,23550,102532,31.69645752,3169.645752,0.992352631,0.161133,0.808594,-0.552246,581,580,584,447,92
0,23.633,23633,102525,31.69347412,3169.347412,0.996144642,0.161133,0.80957,-0.557617,581,581,581,444,91
0,23.717,23717,102531,31.6914624,3169.14624,0.994452674,0.160645,0.808594,-0.556152,582,580,582,446,91
0,23.8,23800,102527,31.69120117,3169.120117,0.996430363,0.161621,0.8125,-0.553711,580,581,581,443,92
0,23.883,23883,102531,31.68970947,3168.970947,0.994201974,0.162598,0.80957,-0.553711,579,579,582,445,90
0,23.967,23967,102537,31.68776123,3168.776123,0.996131261,0.162109,0.811035,-0.555176,580,581,582,448,93
0,24.05,24050,102530,31.6849707,3168.49707,0.994735788,0.157715,0.811523,-0.553223,579,582,583,447,91
0,24.133,24133,102530,31.68334961,3168.334961,0.994125407,0.159668,0.810059,-0.553711,581,580,581,444,91
0,24.217,24217,102529,31.68101318,3168.101318,0.992691482,0.160645,0.808105,-0.553711,579,582,583,445,92
0,24.301,24301,102532,31.67692383,3167.692383,0.99444095,0.161621,0.810059,-0.553711,579,580,581,446,92
0,24.384,24384,102530,31.67744385,3167.744385,0.995554767,0.161133,0.811523,-0.553711,581,580,582,445,92
0,24.467,24467,102530,31.67510742,3167.510742,0.991015786,0.163574,0.807129,-0.55127,582,580,581,444,92
0,24.55,24550,102532,31.67497559,3167.497559,0.995590278,0.164551,0.810547,-0.554199,580,582,582,446,92
0,24.633,24633,102533,31.6730957,3167.30957,0.996688022,0.163086,0.811523,-0.555176,582,581,581,446,90
0,24.716,24716,102533,31.67166748,3167.166748,0.993555725,0.160156,0.808594,-0.554688,579,582,580,446,91
0,24.8,24800,102530,31.67004395,3167.004395,0.995098497,0.163086,0.80957,-0.555176,580,581,583,447,92
0,24.883,24883,102535,31.66855225,3166.855225,0.996098489,0.161133,0.811523,-0.554688,580,581,581,445,91
0,24.966,24966,102527,31.66666992,3166.666992,0.992963765,0.160645,0.808105,-0.554199,579,580,581,446,91
0,25.05,25050,102532,31.66180176,3166.180176,0.993168652,0.161133,0.808594,-0.553711,581,580,582,444,91
0,25.133,25133,102529,31.66108887,3166.108887,0.996098489,0.161133,0.811523,-0.554688,580,581,582,446,92
0,25.216,25216,102531,31.66102295,3166.102295,0.994746436,0.162598,0.80957,-0.554688,580,581,581,445,91
0,25.3,25300,102533,31.65797363,3165.797363,0.994025939,0.164062,0.810059,-0.552246,580,582,581,444,92
0,25.383,25383,102532,31.65745361,3165.745361,0.99589406,0.160645,0.811035,-0.555176,582,579,581,444,92
0,25.466,25466,102532,31.65647949,3165.647949,0.994295058,0.161621,0.810547,-0.552734,582,580,583,443,92
0,25.55,25550,102533,31.65128906,3165.128906,0.997335617,0.161133,0.811035,-0.557617,580,581,581,445,92
0,25.633,25633,102529,31.65232666,3165.232666,0.995792931,0.162598,0.811523,-0.553711,581,580,582,445,92
0,25.717,25717,102532,31.64966553,3164.966553,0.991591632,0.159668,0.807617,-0.552734,581,581,581,445,91
0,25.8,25800,102529,31.64797852,3164.797852,0.992691482,0.160645,0.808105,-0.553711,580,579,580,444,92
0,25.884,25884,102533,31.64564209,3164.564209,0.995349747,0.160645,0.811035,-0.554199,580,581,582,444,91
0,25.967,25967,102534,31.64356445,3164.356445,0.995778629,0.160156,0.812988,-0.552246,580,580,581,446,92
0,26.05,26050,102530,31.64122803,3164.122803,0.994513547,0.158691,0.810059,-0.554688,581,581,582,445,92
0,26.133,26133,102532,31.64122803,3164.122803,0.992703621,0.161621,0.808594,-0.552734,580,581,582,445,93
0,26.217,26217,102532,31.63986572,3163.986572,0.993047643,0.158691,0.808594,-0.554199,580,581,583,445,91
0,26.3,26300,102529,31.6369458,3163.69458,0.994712754,0.161621,0.810059,-0.554199,580,582,584,444,92
0,26.383,26383,102527,31.63383057,3163.383057,0.995326672,0.163574,0.809082,-0.556152,582,579,582,445,92
0,26.467,26467,102534,31.63311523,3163.311523,0.996244998,0.161133,0.811035,-0.555664,581,579,582,444,90
0,26.551,26551,102527,31.63026123,3163.026123,0.996978705,0.15918,0.812988,-0.554688,581,582,583,446,91
0,26.634,26634,102532,31.62935303,3162.935303,0.994964726,0.161621,0.811035,-0.553223,581,580,581,443,92
0,26.717,26717,102527,31.62948242,3162.948242,0.995145799,0.160156,0.810547,-0.554688,580,583,583,446,90
0,26.801,26801,102531,31.62428955,3162.428955,0.998265427,0.162109,0.812988,-0.556152,581,581,583,445,90
0,26.884,26884,102533,31.62441895,3162.441895,0.995952762,0.163574,0.811523,-0.553711,581,579,582,447,92
0,26.967,26967,102528,31.62149902,3162.149902,0.995434048,0.158691,0.811523,-0.554199,582,581,581,445,92
0,27.051,27051,102530,31.6200708,3162.00708,0.990629564,0.162109,0.807617,-0.550293,581,580,581,446,92
0,27.135,27135,102531,31.61786377,3161.786377,0.995349192,0.163086,0.810547,-0.554199,582,579,581,445,92
0,27.218,27218,102534,31.61689209,3161.689209,0.99425881,0.161133,0.808594,-0.555664,582,580,582,445,91
0,27.301,27301,102531,31.61604736,3161.604736,0.99327555,0.161133,0.810059,-0.551758,581,582,583,444,92
0,27.384,27384,102530,31.61286865,3161.286865,0.995654648,0.161621,0.810547,-0.555176,580,580,582,446,93
0,27.467,27467,102536,31.61202393,3161.202393,0.99431457,0.161621,0.80957,-0.554199,581,581,584,445,91
0,27.55,27550,102531,31.61085449,3161.085449,0.993515613,0.160156,0.810547,-0.551758,581,582,581,446,91
0,27.633,27633,102527,31.60806396,3160.806396,0.99364526,0.161621,0.809082,-0.553711,581,580,582,444,92
0,27.716,27716,102526,31.60683105,3160.683105,0.99251279,0.162598,0.806152,-0.555664,581,582,582,445,91
0,27.8,27800,102528,31.60462402,3160.462402,0.994497918,0.160156,0.809082,-0.555664,582,581,583,445,92
0,27.883,27883,102532,31.60430176,3160.430176,0.998402336,0.163574,0.811523,-0.558105,580,582,582,445,91
0,27.966,27966,102526,31.5998877,3159.98877,0.993089425,0.163086,0.808105,-0.553711,580,581,582,443,90
0,28.05,28050,102533,31.59761475,3159.761475,0.992909188,0.162109,0.809082,-0.552246,582,581,582,444,91
0,28.134,28134,102529,31.59768066,3159.768066,0.992135284,0.162109,0.807129,-0.553711,582,582,584,446,92
0,28.217,28217,102529,31.59560303,3159.560303,0.993477179,0.159668,0.808594,-0.554688,580,581,583,445,91
0,28.301,28301,102530,31.59417725,3159.417725,0.993998987,0.159668,0.80957,-0.554199,581,582,583,444,91
0,28.384,28384,102527,31.59047607,3159.047607,0.998902563,0.163574,0.813477,-0.556152,580,581,583,447,92
0,28.468,28468,102530,31.58917969,3158.917969,0.994566978,0.161621,0.810547,-0.553223,581,581,582,445,90
0,28.551,28551,102529,31.58846436,3158.846436,0.995250001,0.162598,0.811523,-0.552734,581,581,582,446,91
0,28.635,28635,102533,31.58561035,3158.561035,0.998651804,0.163574,0.8125,-0.557129,581,582,583,444,92
0,28.718,28718,102531,31.58294922,3158.294922,0.992624287,0.161133,0.808594,-0.552734,581,580,581,446,91
0,28.801,28801,102535,31.58275391,3158.275391,0.995301846,0.159668,0.8125,-0.552246,581,579,583,445,92
0,28.885,28885,102530,31.57970459,3157.970459,0.991604112,0.161133,0.805664,-0.555176,581,580,580,445,92
0,28.968,28968,102530,31.57775635,3157.775635,0.993042832,0.161133,0.808105,-0.554199,582,582,582,443,91
0,29.051,29051,102532,31.57730225,3157.730225,0.993917281,0.161621,0.809082,-0.554199,581,582,581,445,92
0,29.135,29135,102530,31.57639404,3157.639404,0.994772323,0.162109,0.811035,-0.552734,580,581,582,444,90
0,29.219,29219,102533,31.57334229,3157.334229,0.995109584,0.160156,0.8125,-0.551758,580,582,581,444,90
0,29.302,29302,102531,31.5711377,3157.11377,0.991889216,0.161621,0.808594,-0.55127,579,579,581,444,91
0,29.385,29385,102532,31.56996826,3156.996826,0.994203902,0.160156,0.810059,-0.553711,582,582,582,444,88
0,29.468,29468,102532,31.57055176,3157.055176,0.992943188,0.163086,0.808594,-0.552734,581,581,582,447,91
0,29.551,29551,102529,31.56808594,3156.808594,0.993533702,0.160156,0.80957,-0.553223,581,584,581,446,92
0,29.634,29634,102530,31.56620361,3156.620361,0.995349747,0.160645,0.811035,-0.554199,580,580,581,445,91
0,29.717,29717,102533,31.56438721,3156.438721,0.996324044,0.161621,0.811035,-0.555664,581,579,582,444,90
0,29.801,29801,102528,31.55964844,3155.964844,0.994712754,0.161621,0.810059,-0.554199,580,580,581,444,92
0,29.884,29884,102530,31.55926025,3155.926025,0.997648983,0.15918,0.813477,-0.555176,578,580,582,444,91
0,29.967,29967,102531,31.55919434,3155.919434,0.996177547,0.161621,0.811523,-0.554688,581,580,582,444,92
0,30.05,30050,102533,31.55640381,3155.640381,0.992863788,0.160156,0.809082,-0.552734,581,580,583,444,92
0,30.133,30133,102534,31.555625,3155.5625,0.995590268,0.159668,0.811523,-0.554199,581,581,582,446,89
0,30.216,30216,102534,31.55400391,3155.400391,0.996800576,0.162109,0.811523,-0.555664,581,580,583,445,91
0,30.3,30300,102533,31.55017334,3155.017334,0.995119942,0.166504,0.80957,-0.554199,581,582,580,445,92
0,30.383,30383,102532,31.55147217,3155.147217,0.995475106,0.163086,0.811035,-0.553711,582,582,582,446,92
0,30.466,30466,102530,31.54829102,3154.829102,0.995392357,0.166504,0.80957,-0.554688,582,580,583,445,91
0,30.55,30550,102530,31.54446289,3154.446289,0.992511576,0.162109,0.808594,-0.552246,580,581,582,445,91
0,30.633,30633,102532,31.54368408,3154.368408,0.997275565,0.161133,0.813965,-0.553223,581,582,582,445,91
0,30.716,30716,102529,31.54258057,3154.258057,0.991792804,0.161133,0.80957,-0.549805,580,581,582,445,89
0,30.8,30800,102529,31.53985596,3153.985596,0.993136101,0.160156,0.809082,-0.553223,579,582,582,445,89
0,30.883,30883,102529,31.53933594,3153.933594,0.993976362,0.163086,0.811523,-0.550293,580,581,582,446,91
0,30.966,30966,102532,31.5372583,3153.72583,0.993373403,0.161621,0.809082,-0.553223,580,580,582,443,90
0,31.05,31050,102530,31.53310547,3153.310547,0.994023859,0.161621,0.810547,-0.552246,582,582,580,446,91
0,31.134,31134,102532,31.53252197,3153.252197,0.992001827,0.163086,0.808105,-0.551758,579,582,583,446,91
0,31.218,31218,102532,31.53141846,3153.141846,0.993658433,0.160645,0.807617,-0.556152,580,581,583,446,90
0,31.301,31301,102530,31.52966553,3152.966553,0.991332878,0.163086,0.807617,-0.55127,581,581,581,444,90
0,31.384,31384,102530,31.52843262,3152.843262,0.995961214,0.162598,0.810059,-0.556152,581,581,584,445,92
0,31.467,31467,102529,31.52635498,3152.635498,0.995587078,0.162109,0.811035,-0.554199,581,580,581,444,91
0,31.55,31550,102531,31.52700439,3152.700439,0.996227776,0.159668,0.813965,-0.551758,582,580,582,447,91
0,31.633,31633,102534,31.52363037,3152.363037,0.995621545,0.163086,0.810547,-0.554688,580,580,581,445,91
0,31.716,31716,102528,31.52174805,3152.174805,0.994646397,0.162109,0.810547,-0.553223,580,579,582,444,90
0,31.8,31800,102531,31.52019043,3152.019043,0.993848341,0.163086,0.811035,-0.550781,579,582,583,446,89
0,31.884,31884,102529,31.51778809,3151.778809,0.997529285,0.163086,0.810547,-0.558105,581,581,583,446,91
0,31.967,31967,102534,31.51610107,3151.610107,0.994057975,0.160156,0.810547,-0.552734,581,582,582,445,92
0,32.05,32050,102531,31.51460938,3151.460938,0.994842658,0.15918,0.811035,-0.553711,581,581,582,445,90
0,32.133,32133,102530,31.51136475,3151.136475,0.993932199,0.160156,0.810059,-0.553223,581,580,583,444,90
0,32.216,32216,102530,31.51220703,3151.220703,0.994475771,0.160156,0.810059,-0.554199,581,579,582,445,91
0,32.3,32300,102528,31.5094165,3150.94165,0.998121691,0.164551,0.812988,-0.555176,581,581,582,443,91
0,32.383,32383,102528,31.50708008,3150.708008,0.993344401,0.158691,0.807617,-0.556152,581,581,582,445,91
0,32.468,32468,102532,31.50428955,3150.428955,0.996386254,0.165527,0.812988,-0.551758,581,582,580,443,91
0,32.551,32551,102531,31.50396484,3150.396484,0.995178285,0.161133,0.810059,-0.555176,581,581,581,446,90
0,32.634,32634,102531,31.50299072,3150.299072,0.991682623,0.161133,0.808105,-0.551758,580,581,582,446,90
0,32.717,32717,102527,31.49981201,3149.981201,0.994772323,0.162109,0.811035,-0.552734,580,580,584,447,91
0,32.8,32800,102528,31.49728027,3149.728027,0.992340172,0.162598,0.807617,-0.553223,580,580,582,445,90
0,32.883,32883,102533,31.49734619,3149.734619,0.995092451,0.164062,0.811035,-0.552734,581,580,580,443,91
0,32.966,32966,102530,31.49500977,3149.500977,0.992909188,0.162109,0.809082,-0.552246,581,582,581,446,90
0,33.05,33050,102531,31.49436035,3149.436035,0.995611767,0.159668,0.810547,-0.555664,581,582,582,446,91
0,33.134,33134,102529,31.49208984,3149.208984,0.994343269,0.163574,0.810547,-0.552246,582,582,582,448,90
0,33.218,33218,102532,31.48845459,3148.845459,0.996098892,0.163574,0.811035,-0.554688,582,582,584,444,91
0,33.301,33301,102532,31.48903809,3148.903809,0.993608992,0.161621,0.811035,-0.550781,581,582,581,445,90
0,33.384,33384,102529,31.48670166,3148.670166,0.991222598,0.15918,0.808594,-0.550781,580,580,582,444,90
0,33.468,33468,102531,31.48280762,3148.280762,0.993770909,0.161621,0.80957,-0.553223,582,582,582,447,90
0,33.551,33551,102534,31.4817041,3148.17041,0.994619167,0.158691,0.811523,-0.552734,581,583,583,444,91
0,33.634,33634,102530,31.47962891,3147.962891,0.994397298,0.159668,0.810059,-0.554199,581,580,581,445,89
0,33.718,33718,102529,31.47956299,3147.956299,0.995503064,0.158203,0.811035,-0.555176,581,582,583,443,91
0,33.801,33801,102530,31.47553955,3147.553955,0.995643347,0.163086,0.80957,-0.556152,579,581,582,445,90
0,33.884,33884,102529,31.47534424,3147.534424,0.996834476,0.15918,0.813477,-0.553711,581,580,581,444,92
0,33.967,33967,102535,31.47365723,3147.365723,0.994966566,0.164062,0.810547,-0.553223,580,579,580,444,91
0,34.051,34051,102530,31.4728125,3147.28125,0.993351877,0.159668,0.808105,-0.555176,579,580,583,443,90
0,34.134,34134,102529,31.47242432,3147.242432,0.997530137,0.162598,0.812988,-0.554688,581,580,581,444,91
0,34.217,34217,102529,31.47015137,3147.015137,0.993599575,0.162109,0.808594,-0.554199,581,581,581,447,90
0,34.301,34301,102528,31.46775146,3146.775146,0.993467686,0.160645,0.810059,-0.552246,580,583,582,444,90
0,34.384,34384,102531,31.46561035,3146.561035,0.995250001,0.162598,0.811523,-0.552734,582,580,584,445,90
0,34.468,34468,102526,31.4633374,3146.33374,0.993231846,0.15918,0.810059,-0.552246,581,581,581,444,90
0,34.552,34552,102534,31.461521,3146.1521,0.992612466,0.160156,0.808105,-0.553711,581,582,581,445,89
0,34.635,34635,102533,31.46022217,3146.022217,0.994377452,0.159668,0.811035,-0.552734,580,583,581,445,90
0,34.719,34719,102531,31.45808105,3145.808105,0.993101156,0.161621,0.809082,-0.552734,580,579,581,444,89
0,34.803,34803,102528,31.45522461,3145.522461,0.993728917,0.164551,0.808594,-0.553711,580,580,582,444,89
0,34.886,34886,102528,31.45626465,3145.626465,0.994692914,0.161621,0.811035,-0.552734,583,582,581,447,90
0,34.969,34969,102529,31.45269531,3145.269531,0.994397298,0.159668,0.810059,-0.554199,580,582,581,443,89
0,35.052,35052,102532,31.4544458,3145.44458,0.993703079,0.162598,0.807617,-0.555664,581,581,583,445,90
0,35.136,35136,102530,31.45100586,3145.100586,0.994408841,0.160645,0.810547,-0.553223,581,581,582,444,89
0,35.22,35220,102532,31.44860596,3144.860596,0.993554548,0.166016,0.809082,-0.552246,581,580,580,446,90
0,35.303,35303,102531,31.44737305,3144.737305,0.992478925,0.161133,0.809082,-0.551758,580,580,582,444,92
0,35.386,35386,102529,31.44328369,3144.328369,0.994068582,0.15918,0.809082,-0.555176,582,581,582,446,89
0,35.47,35470,102528,31.44341309,3144.341309,0.994156556,0.163086,0.809082,-0.554199,579,582,582,446,89
0,35.553,35553,102531,31.44237549,3144.237549,0.99444095,0.161621,0.810059,-0.553711,581,582,582,447,92
0,35.636,35636,102528,31.44023438,3144.023438,0.994794874,0.159668,0.810547,-0.554199,581,580,583,447,91
0,35.72,35720,102531,31.43789795,3143.789795,0.996416279,0.163086,0.811523,-0.554688,581,582,582,445,91
0,35.803,35803,102527,31.43569092,3143.569092,0.994504447,0.159668,0.811523,-0.552246,582,581,583,445,89
0,35.886,35886,102533,31.43439209,3143.439209,0.994838509,0.161621,0.810547,-0.553711,580,580,584,445,90
0,35.969,35969,102528,31.43439209,3143.439209,0.994582912,0.160156,0.811523,-0.552246,579,581,582,443,90
0,36.052,36052,102529,31.43160156,3143.160156,0.995496683,0.160645,0.810547,-0.555176,580,580,582,444,91
0,36.135,36135,102531,31.42946045,3142.946045,0.994549052,0.161621,0.811523,-0.551758,581,581,581,444,92
0,36.218,36218,102529,31.42978516,3142.978516,0.996406509,0.159668,0.811523,-0.555664,580,580,582,445,89
0,36.301,36301,102529,31.42757812,3142.757812,0.99417984,0.160645,0.808594,-0.555664,580,580,581,445,89
0,36.384,36384,102529,31.42608643,3142.608643,0.996159267,0.161621,0.8125,-0.553223,582,581,582,444,92
0,36.467,36467,102532,31.4252417,3142.52417,0.993792927,0.161621,0.808594,-0.554688,581,581,582,446,92
0,36.55,36550,102530,31.42095947,3142.095947,0.994233544,0.159668,0.811523,-0.551758,582,582,583,445,89
0,36.633,36633,102531,31.41940186,3141.940186,0.994342627,0.161133,0.811035,-0.552246,580,579,582,445,89
0,36.716,36716,102528,31.41927002,3141.927002,0.991841676,0.162109,0.808105,-0.551758,581,581,581,446,90
0,36.8,36800,102530,31.4163501,3141.63501,0.994248761,0.162109,0.810059,-0.553223,582,581,581,446,91
0,36.883,36883,102531,31.41368896,3141.368896,0.992225987,0.161133,0.808105,-0.552734,581,581,583,445,90
0,36.966,36966,102526,31.41193848,3141.193848,0.993532828,0.162598,0.809082,-0.553223,582,581,581,443,90
0,37.05,37050,102532,31.41057373,3141.057373,0.994408841,0.160645,0.810547,-0.553223,582,580,582,444,90
0,37.134,37134,102532,31.40849854,3140.849854,0.99416988,0.162109,0.807617,-0.556641,581,582,581,445,89
0,37.217,37217,102530,31.40830322,3140.830322,0.997788878,0.161621,0.8125,-0.556152,580,581,581,444,92
0,37.3,37300,102532,31.40713379,3140.713379,0.992785187,0.159668,0.809082,-0.552734,579,581,583,446,89
0,37.383,37383,102532,31.40635498,3140.635498,0.993282806,0.160156,0.808594,-0.554199,581,580,582,447,91
0,37.466,37466,102529,31.40330566,3140.330566,0.994646397,0.162109,0.810547,-0.553223,579,581,583,445,90
0,37.55,37550,102530,31.39908691,3139.908691,0.995090851,0.161621,0.811523,-0.552734,581,579,582,447,90
0,37.633,37633,102534,31.40109863,3140.109863,0.994859449,0.161621,0.80957,-0.555176,582,581,584,448,89
0,37.716,37716,102530,31.39869873,3139.869873,0.99538677,0.15918,0.811035,-0.554688,579,581,581,445,91
0,37.8,37800,102530,31.3975293,3139.75293,0.994788175,0.163086,0.811523,-0.551758,582,580,581,444,89
0,37.883,37883,102525,31.39525879,3139.525879,0.992929449,0.162109,0.808105,-0.553711,581,581,582,445,89
0,37.966,37966,102531,31.39311523,3139.311523,0.994134086,0.161133,0.808105,-0.556152,579,580,582,446,90
0,38.05,38050,102533,31.39039062,3139.039062,0.994871964,0.162598,0.810059,-0.554199,581,582,580,446,89
0,38.133,38133,102533,31.39104004,3139.104004,0.994920858,0.159668,0.811035,-0.553711,579,581,581,446,90
0,38.216,38216,102530,31.38837891,3138.837891,0.994969115,0.15918,0.811523,-0.553223,580,581,582,446,90
0,38.3,38300,102527,31.38649658,3138.649658,0.995461975,0.162109,0.810547,-0.554688,579,579,583,445,89
0,38.383,38383,102530,31.38441895,3138.441895,0.992990017,0.160156,0.80957,-0.552246,582,581,583,444,91
0,38.466,38466,102534,31.38474365,3138.474365,0.99127294,0.160156,0.807129,-0.552734,581,581,582,446,89
0,38.55,38550,102532,31.38338135,3138.338135,0.995784429,0.15918,0.811523,-0.554688,581,580,583,447,91
0,38.633,38633,102529,31.3796167,3137.96167,0.993340627,0.163086,0.809082,-0.552734,579,583,582,446,90
0,38.716,38716,102534,31.37896729,3137.896729,0.992783189,0.162109,0.808594,-0.552734,582,582,582,446,89
0,38.8,38800,102529,31.37702148,3137.702148,0.997709948,0.161133,0.8125,-0.556152,581,581,582,447,90
0,38.883,38883,102531,31.37585205,3137.585205,0.992022037,0.160645,0.807617,-0.553223,581,581,583,445,89
0,38.966,38966,102532,31.37319092,3137.319092,0.993281598,0.162598,0.808105,-0.554199,582,580,582,446,91
0,39.05,39050,102533,31.37169922,3137.169922,0.996291517,0.160645,0.811523,-0.555176,582,581,581,445,90
0,39.134,39134,102531,31.36975342,3136.975342,0.993945512,0.163574,0.810059,-0.552246,582,579,582,445,89
0,39.217,39217,102531,31.36825928,3136.825928,0.994759345,0.161133,0.810547,-0.553711,580,581,584,445,90
0,39.3,39300,102532,31.36585938,3136.585938,0.993009509,0.158691,0.810547,-0.55127,582,583,582,444,90
0,39.383,39383,102531,31.36644287,3136.644287,0.993952284,0.162598,0.808594,-0.554688,581,581,582,446,89
0,39.466,39466,102533,31.36520996,3136.520996,0.994057975,0.160156,0.810547,-0.552734,582,581,582,446,89
0,39.55,39550,102527,31.36137939,3136.137939,0.994235365,0.161133,0.80957,-0.554199,582,580,580,445,90
0,39.633,39633,102530,31.35845947,3135.845947,0.993770909,0.161621,0.80957,-0.553223,579,581,583,445,87
0,39.716,39716,102528,31.35956299,3135.956299,0.995813707,0.162598,0.810547,-0.555176,580,581,582,446,89
0,39.8,39800,102531,31.35787598,3135.787598,0.997545565,0.163574,0.813477,-0.553711,581,581,581,447,90
0,39.883,39883,102530,31.35248779,3135.248779,0.994042657,0.161621,0.80957,-0.553711,581,581,581,446,89
0,39.967,39967,102530,31.35268311,3135.268311,0.996019665,0.160645,0.811523,-0.554688,581,580,580,444,90
0,40.05,40050,102531,31.35157959,3135.157959,0.995533622,0.15918,0.810547,-0.555664,582,581,582,446,91
0,40.134,40134,102531,31.35242432,3135.242432,0.994680414,0.160645,0.810547,-0.553711,581,581,582,446,90
0,40.217,40217,102534,31.34878906,3134.878906,0.994421824,0.161621,0.811035,-0.552246,581,583,583,446,90
0,40.3,40300,102530,31.34827148,3134.827148,0.994455871,0.161133,0.8125,-0.550293,581,583,584,445,89
0,40.383,40383,102529,31.34638916,3134.638916,0.995192531,0.159668,0.811035,-0.554199,582,581,582,447,89
0,40.466,40466,102531,31.34424561,3134.424561,0.998659976,0.163086,0.814941,-0.553711,582,581,581,445,89
0,40.55,40550,102530,31.34340332,3134.340332,0.994332512,0.165039,0.80957,-0.553223,584,582,583,445,90
0,40.633,40633,102531,31.34385742,3134.385742,0.995575549,0.161133,0.810547,-0.555176,582,580,582,446,87
0,40.716,40716,102534,31.3404834,3134.04834,0.994566978,0.161621,0.810547,-0.553223,582,582,582,446,90
0,40.8,40800,102528,31.33639404,3133.639404,0.995490228,0.164062,0.811523,-0.552734,580,581,583,446,88
0,40.883,40883,102531,31.33541992,3133.541992,0.992366678,0.162109,0.809082,-0.55127,581,582,583,443,91
0,40.966,40966,102533,31.33457764,3133.457764,0.996406509,0.159668,0.811523,-0.555664,581,580,582,446,91
0,41.05,41050,102530,31.3315918,3133.15918,0.995123896,0.162598,0.811035,-0.553223,582,581,583,447,90
0,41.133,41133,102532,31.3335376,3133.35376,0.995203749,0.163086,0.811035,-0.553223,581,582,582,446,88
0,41.216,41216,102531,31.32789307,3132.789307,0.995554767,0.161133,0.811523,-0.553711,582,582,583,446,92
0,41.3,41300,102530,31.32795654,3132.795654,0.994342627,0.161133,0.811035,-0.552246,581,581,584,445,88
0,41.384,41384,102528,31.3254248,3132.54248,0.992176012,0.160156,0.80957,-0.550781,582,582,582,444,89
0,41.467,41467,102527,31.32289551,3132.289551,0.992754785,0.158691,0.80957,-0.552246,582,583,583,446,89
0,41.55,41550,102530,31.32341309,3132.341309,0.994057975,0.160156,0.810547,-0.552734,583,581,581,444,89
0,41.633,41633,102528,31.32230957,3132.230957,0.995203749,0.163086,0.811035,-0.553223,581,582,582,446,89
0,41.716,41716,102532,31.32055908,3132.055908,0.994772323,0.162109,0.811035,-0.552734,580,581,582,444,90
0,41.8,41800,102528,31.31757324,3131.757324,0.993294123,0.161133,0.809082,-0.553223,580,582,582,444,89
0,41.884,41884,102528,31.31601562,3131.601562,0.995507735,0.161621,0.811035,-0.554199,581,581,581,443,89
0,41.967,41967,102533,31.31614502,3131.614502,0.992134259,0.158203,0.80957,-0.55127,580,579,583,448,88
0,42.05,42050,102531,31.31374268,3131.374268,0.994184772,0.160156,0.811035,-0.552246,579,582,582,446,90
0,42.133,42133,102534,31.31114746,3131.114746,0.993705467,0.162109,0.810059,-0.552246,579,580,581,445,89
0,42.216,42216,102528,31.31049805,3131.049805,0.996621914,0.162109,0.813965,-0.551758,582,582,582,445,90
0,42.3,42300,102535,31.30971924,3130.971924,0.994741107,0.163574,0.811035,-0.552246,581,580,583,442,91
0,42.383,42383,102531,31.30835693,3130.835693,0.996396683,0.157227,0.812988,-0.554199,580,579,582,446,89
0,42.467,42467,102530,31.30348877,3130.348877,0.995028066,0.157715,0.810547,-0.555176,581,581,582,445,89
0,42.55,42550,102528,31.30290527,3130.290527,0.991785853,0.15918,0.807617,-0.553223,581,581,582,446,89
0,42.633,42633,102530,31.30283936,3130.283936,0.993612645,0.160645,0.80957,-0.553223,580,581,583,445,92
0,42.716,42716,102532,31.30134766,3130.134766,0.99219446,0.160156,0.808594,-0.552246,580,582,583,445,89
0,42.8,42800,102533,31.29991943,3129.991943,0.996272522,0.160645,0.8125,-0.553711,580,581,582,446,89
0,42.883,42883,102527,31.29751953,3129.751953,0.994332512,0.165039,0.80957,-0.553223,583,582,581,446,89
0,42.967,42967,102527,31.29420898,3129.420898,0.997028126,0.162598,0.811035,-0.556641,582,581,582,443,89
0,43.05,43050,102531,31.29362549,3129.362549,0.992007441,0.158203,0.809082,-0.551758,582,582,582,445,88
0,43.134,43134,102529,31.29297607,3129.297607,0.994727804,0.160156,0.811035,-0.553223,582,579,582,446,89
0,43.217,43217,102531,31.29193848,3129.193848,0.995362903,0.162598,0.812988,-0.550781,580,581,583,445,91
0,43.3,43300,102529,31.28895264,3128.895264,0.991506305,0.162598,0.808594,-0.550293,580,581,582,447,89
0,43.383,43383,102529,31.28888672,3128.888672,0.995089193,0.159668,0.80957,-0.556152,581,582,582,445,89
0,43.466,43466,102528,31.28648682,3128.648682,0.99604935,0.160156,0.812988,-0.552734,579,582,583,443,89
0,43.55,43550,102528,31.28350098,3128.350098,0.991684709,0.163574,0.807617,-0.551758,582,581,583,445,89
0,43.633,43633,102527,31.28207275,3128.207275,0.996905431,0.160156,0.811035,-0.557129,579,580,582,447,91
0,43.716,43716,102530,31.28122803,3128.122803,0.994566978,0.161621,0.810547,-0.553223,582,580,583,443,89
0,43.8,43800,102527,31.27967041,3127.967041,0.992101179,0.161133,0.807617,-0.553223,582,581,581,447,90
0,43.883,43883,102532,31.27876221,3127.876221,0.996094604,0.162109,0.812988,-0.552246,581,580,582,444,89
0,43.966,43966,102530,31.27733398,3127.733398,0.99140188,0.160645,0.805176,-0.555664,581,579,583,444,89
0,44.05,44050,102530,31.27551758,3127.551758,0.992707721,0.159668,0.806641,-0.556152,581,581,583,447,89
0,44.133,44133,102530,31.27318115,3127.318115,0.99899814,0.165039,0.813965,-0.555176,580,580,583,445,89
0,44.216,44216,102529,31.27168945,3127.168945,0.992511576,0.162109,0.808594,-0.552246,582,582,581,447,90
0,44.3,44300,102530,31.27032471,3127.032471,0.996394119,0.163574,0.810059,-0.556641,582,582,582,447,89
0,44.383,44383,102531,31.2679248,3126.79248,0.993503262,0.15918,0.810059,-0.552734,581,580,584,447,91
0,44.466,44466,102529,31.2670166,3126.70166,0.996131261,0.162109,0.811035,-0.555176,579,582,583,446,89
0,44.55,44550,102530,31.26617188,3126.617188,0.994361754,0.161133,0.810059,-0.553711,581,579,582,445,90
0,44.633,44633,102527,31.26416016,3126.416016,0.994134116,0.157227,0.810547,-0.553711,581,580,580,443,90
0,44.716,44716,102531,31.26149902,3126.149902,0.993153594,0.158691,0.810059,-0.552246,581,581,582,445,90
0,44.8,44800,102531,31.26162842,3126.162842,0.997438005,0.161133,0.8125,-0.555664,582,580,583,444,89
0,44.883,44883,102531,31.26046143,3126.046143,0.994454335,0.162598,0.810547,-0.552734,581,580,583,445,90
0,44.966,44966,102526,31.25695557,3125.695557,0.995417889,0.160156,0.810547,-0.555176,581,581,582,446,89
0,45.05,45050,102528,31.25617676,3125.617676,0.990756989,0.157715,0.806641,-0.553223,582,583,582,445,89
0,45.133,45133,102530,31.25520508,3125.520508,0.99423035,0.162109,0.811035,-0.551758,580,580,582,445,89
0,45.216,45216,102528,31.25513916,3125.513916,0.994421824,0.161621,0.811035,-0.552246,582,580,582,447,89
0,45.3,45300,102532,31.25053223,3125.053223,0.995112283,0.164062,0.810059,-0.554199,581,581,582,447,90
0,45.383,45383,102529,31.25111572,3125.111572,0.999557598,0.166016,0.814453,-0.555176,580,581,582,446,90
0,45.466,45466,102530,31.24851807,3124.851807,0.99256171,0.15918,0.80957,-0.551758,582,582,581,445,89
0,45.55,45550,102528,31.24689697,3124.689697,0.99463358,0.161133,0.810059,-0.554199,581,582,582,446,88
0,45.633,45633,102529,31.24456055,3124.456055,0.993898787,0.164062,0.80957,-0.552734,582,582,583,448,89
0,45.716,45716,102530,31.24520996,3124.520996,0.997132457,0.162598,0.8125,-0.554688,580,581,583,445,89
0,45.8,45800,102531,31.24345703,3124.345703,0.993260624,0.162598,0.809082,-0.552734,579,581,584,446,88
0,45.883,45883,102525,31.24053711,3124.053711,0.993019714,0.162109,0.810547,-0.550293,580,580,583,445,90
0,45.966,45966,102530,31.23904297,3123.904297,0.994600203,0.162598,0.810059,-0.553711,581,580,582,445,90
0,46.05,46050,102531,31.23871826,3123.871826,0.99000131,0.162109,0.805176,-0.552734,582,582,582,446,90
0,46.133,46133,102531,31.23722656,3123.722656,0.99464935,0.159668,0.811035,-0.553223,580,580,583,445,89
0,46.216,46216,102528,31.23521484,3123.521484,0.994282792,0.160645,0.810059,-0.553711,582,582,582,448,88
0,46.3,46300,102526,31.23294434,3123.294434,0.99375904,0.160645,0.809082,-0.554199,579,582,581,444,89
0,46.383,46383,102528,31.23248779,3123.248779,0.996291517,0.160645,0.811523,-0.555176,581,581,582,445,90
0,46.467,46467,102533,31.23008789,3123.008789,0.993243327,0.162598,0.810059,-0.55127,581,580,582,443,90
0,46.55,46550,102529,31.22885498,3122.885498,0.993434347,0.162109,0.810059,-0.551758,580,581,584,446,90
0,46.633,46633,102529,31.22677734,3122.677734,0.994772323,0.162109,0.811035,-0.552734,582,582,582,445,89
0,46.716,46716,102529,31.22625977,3122.625977,0.99263785,0.162109,0.809082,-0.551758,579,580,583,445,89
0,46.8,46800,102534,31.22470215,3122.470215,0.996959931,0.163086,0.811523,-0.555664,581,581,583,447,88
0,46.884,46884,102530,31.22340332,3122.340332,0.995304383,0.163574,0.810059,-0.554688,582,582,583,447,89
0,46.967,46967,102533,31.22080811,3122.080811,0.996528624,0.162109,0.811523,-0.555176,581,582,583,445,90
0,47.05,47050,102531,31.22132568,3122.132568,0.994816534,0.159668,0.80957,-0.555664,581,581,582,447,90
0,47.133,47133,102529,31.21814697,3121.814697,0.994421824,0.161621,0.811035,-0.552246,582,580,583,444,90
0,47.216,47216,102530,31.21833984,3121.833984,0.994838509,0.161621,0.810547,-0.553711,581,581,582,445,90
0,47.3,47300,102529,31.21496582,3121.496582,0.995236148,0.161621,0.811035,-0.553711,581,581,583,446,90
0,47.383,47383,102528,31.21405762,3121.405762,0.994248761,0.162109,0.810059,-0.553223,582,579,581,446,90
0,47.466,47466,102531,31.2129541,3121.29541,0.995223216,0.157227,0.810547,-0.555664,581,582,584,446,90
0,47.55,47550,102530,31.21094238,3121.094238,0.994951837,0.163086,0.810059,-0.554199,580,582,583,445,88
0,47.633,47633,102529,31.20782715,3120.782715,0.994697304,0.15918,0.811523,-0.552734,582,583,583,445,88
0,47.716,47716,102528,31.20776123,3120.776123,0.99297336,0.160156,0.810547,-0.550781,579,582,582,443,91
0,47.8,47800,102526,31.2051001,3120.51001,0.99273858,0.160156,0.808594,-0.553223,580,582,581,445,92
0,47.883,47883,102532,31.20445312,3120.445312,0.995658794,0.15918,0.811035,-0.555176,581,582,582,444,89
0,47.966,47966,102531,31.2027002,3120.27002,0.994661772,0.160645,0.811523,-0.552246,582,579,582,444,88
0,48.05,48050,102529,31.20016846,3120.016846,0.995399509,0.165039,0.810547,-0.553711,581,582,582,446,88
0,48.133,48133,102525,31.19796143,3119.796143,0.993599575,0.162109,0.808594,-0.554199,581,579,582,445,89
0,48.216,48216,102528,31.19938965,3119.938965,0.995862565,0.164551,0.810547,-0.554688,580,581,582,446,90
0,48.3,48300,102526,31.19549561,3119.549561,0.99330688,0.162109,0.80957,-0.552246,582,581,584,446,88
0,48.383,48383,102530,31.19400391,3119.400391,0.994304224,0.160645,0.809082,-0.555176,582,581,580,445,89
0,48.466,48466,102531,31.19419922,3119.419922,0.995417889,0.160156,0.810547,-0.555176,582,579,582,446,90
0,48.55,48550,102528,31.19270508,3119.270508,0.99464935,0.159668,0.811035,-0.553223,581,579,581,445,90
0,48.633,48633,102529,31.19075928,3119.075928,0.993907171,0.160645,0.808594,-0.555176,583,581,583,445,90
0,48.716,48716,102530,31.19075928,3119.075928,0.9934195,0.161133,0.80957,-0.552734,581,581,582,446,89
0,48.8,48800,102528,31.18803223,3118.803223,0.993058745,0.158203,0.811035,-0.550781,582,580,584,446,89
0,48.883,48883,102528,31.18751221,3118.751221,0.990493285,0.158691,0.807129,-0.551758,581,581,582,445,90
0,48.966,48966,102531,31.18400879,3118.400879,0.993503262,0.15918,0.810059,-0.552734,580,581,584,445,90
0,49.05,49050,102534,31.18355469,3118.355469,0.993551668,0.158691,0.810547,-0.552246,581,581,582,445,89
0,49.134,49134,102530,31.18290527,3118.290527,0.993952919,0.160156,0.809082,-0.554688,579,581,581,445,88
0,49.218,49218,102528,31.17959473,3117.959473,0.991898492,0.163086,0.806641,-0.553711,580,580,582,447,87
0,49.301,49301,102526,31.17719482,3117.719482,0.993136101,0.160156,0.809082,-0.553223,579,579,582,445,89
0,49.384,49384,102528,31.17674072,3117.674072,0.994248761,0.162109,0.810059,-0.553223,582,580,582,446,89
0,49.467,49467,102528,31.17777832,3117.777832,0.994784794,0.166992,0.810059,-0.552734,581,582,582,445,90
0,49.55,49550,102530,31.17615479,3117.615479,0.994566978,0.161621,0.810547,-0.553223,580,579,583,445,87
0,49.633,49633,102527,31.17420898,3117.420898,0.993601572,0.159668,0.809082,-0.554199,581,581,582,446,89
0,49.716,49716,102529,31.17291016,3117.291016,0.9933377,0.157227,0.80957,-0.553711,580,581,582,445,90
0,49.8,49800,102527,31.16934082,3116.934082,0.993244681,0.160156,0.810547,-0.55127,582,581,583,445,90
0,49.883,49883,102533,31.17011963,3117.011963,0.991238727,0.161621,0.807129,-0.552246,580,582,583,444,90
0,49.967,49967,102523,31.16609619,3116.609619,0.995434048,0.158691,0.811523,-0.554199,582,580,584,444,90
0,50.05,50050,102527,31.16707031,3116.707031,0.993327467,0.162109,0.808594,-0.553711,582,581,581,446,89
0,50.133,50133,102529,31.16382568,3116.382568,0.996800576,0.162109,0.811523,-0.555664,582,582,584,444,89
0,50.216,50216,102527,31.16285156,3116.285156,0.991285001,0.161133,0.807617,-0.551758,582,582,582,444,88
0,50.3,50300,102530,31.16135986,3116.135986,0.991875953,0.163086,0.807617,-0.552246,583,582,583,445,88
0,50.383,50383,102531,31.15993164,3115.993164,0.995157658,0.163574,0.810547,-0.553711,581,581,583,445,89
0,50.466,50466,102531,31.1593457,3115.93457,0.991367164,0.15918,0.808105,-0.551758,581,580,584,444,91
0,50.55,50550,102530,31.15668701,3115.668701,0.992067795,0.160156,0.808105,-0.552734,581,581,583,445,89
0,50.633,50633,102530,31.15642578,3115.642578,0.996223393,0.162109,0.813477,-0.551758,582,581,581,443,90
0,50.716,50716,102528,31.15480469,3115.480469,0.992863788,0.160156,0.809082,-0.552734,580,582,582,446,88
0,50.8,50800,102530,31.15512939,3115.512939,0.994251476,0.159668,0.810547,-0.553223,581,582,581,446,89
0,50.883,50883,102530,31.15084473,3115.084473,0.996098892,0.163574,0.811035,-0.554688,582,582,584,447,89
0,50.966,50966,102528,31.15013184,3115.013184,0.995981945,0.157227,0.813477,-0.552734,581,582,581,445,90
0,51.05,51050,102528,31.14831299,3114.831299,0.995973536,0.163574,0.810547,-0.555176,581,581,581,446,90
0,51.133,51133,102526,31.14571777,3114.571777,0.992942785,0.160645,0.809082,-0.552734,580,581,581,445,89
0,51.216,51216,102528,31.14695068,3114.695068,0.995541725,0.162598,0.810547,-0.554688,582,583,582,446,89
0,51.3,51300,102529,31.14455078,3114.455078,0.99273858,0.160156,0.808594,-0.553223,582,581,581,446,88
0,51.383,51383,102529,31.14377197,3114.377197,0.998202259,0.165039,0.812988,-0.555176,580,579,582,446,90
0,51.466,51466,102527,31.14130371,3114.130371,0.993523269,0.15918,0.809082,-0.554199,581,582,582,443,90
0,51.55,51550,102530,31.13994141,3113.994141,0.995201709,0.157227,0.811523,-0.554199,580,582,582,446,88
0,51.633,51633,102531,31.13799561,3113.799561,0.994374498,0.162109,0.810547,-0.552734,581,582,583,447,88
0,51.716,51716,102530,31.13539795,3113.539795,0.997402831,0.161133,0.814453,-0.552734,581,582,582,447,88
0,51.8,51800,102528,31.13604736,3113.604736,0.992446676,0.162598,0.809082,-0.55127,580,581,581,444,88
0,51.883,51883,102529,31.13429443,3113.429443,0.994169311,0.161621,0.810059,-0.553223,580,580,584,445,89
0,51.966,51966,102528,31.13358154,3113.358154,0.994680414,0.160645,0.810547,-0.553711,581,580,581,445,88
0,52.05,52050,102537,31.13221924,3113.221924,0.995926839,0.161621,0.810547,-0.555664,582,580,583,445,90
0,52.133,52133,102529,31.12890869,3112.890869,0.993546713,0.161133,0.810059,-0.552246,580,580,582,446,89
0,52.216,52216,102529,31.12657227,3112.657227,0.994408841,0.160645,0.810547,-0.553223,579,581,581,446,89
0,52.3,52300,102529,31.12520996,3112.520996,0.993667618,0.157715,0.810547,-0.552734,582,582,584,445,89
0,52.383,52383,102530,31.12598877,3112.598877,0.996193789,0.160156,0.8125,-0.553711,581,581,583,445,89
0,52.466,52466,102533,31.12644287,3112.644287,0.992797709,0.160645,0.80957,-0.551758,582,583,582,445,91
0,52.55,52550,102529,31.12209473,3112.209473,0.991650348,0.162598,0.808105,-0.55127,582,581,582,447,90
0,52.633,52633,102529,31.12202881,3112.202881,0.995269351,0.162598,0.810547,-0.554199,582,581,583,445,88
0,52.716,52716,102528,31.12053711,3112.053711,0.992823025,0.158203,0.809082,-0.553223,580,579,581,444,89
0,52.8,52800,102531,31.11800537,3111.800537,0.996795977,0.163086,0.812988,-0.553223,581,581,584,445,88
0,52.883,52883,102533,31.11716064,3111.716064,0.992498475,0.161133,0.808105,-0.553223,582,579,582,441,88
0,52.966,52966,102530,31.11573486,3111.573486,0.995973536,0.163574,0.810547,-0.555176,580,579,582,444,88
0,53.05,53050,102529,31.11365723,3111.365723,0.996144143,0.163086,0.811523,-0.554199,581,581,581,445,88
0,53.133,53133,102528,31.11249023,3111.249023,0.995508073,0.160156,0.812988,-0.551758,582,583,581,444,89
0,53.216,53216,102529,31.11080078,3111.080078,0.993450702,0.160645,0.811035,-0.550781,581,582,582,445,88
0,53.3,53300,102531,31.10891846,3110.891846,0.992478925,0.161133,0.809082,-0.551758,582,581,582,445,90
0,53.383,53383,102527,31.10794678,3110.794678,0.993033511,0.160156,0.807617,-0.555176,583,580,582,443,90
0,53.466,53466,102531,31.10606445,3110.606445,0.994587206,0.161621,0.80957,-0.554688,581,581,583,447,90
0,53.55,53550,102529,31.10548096,3110.548096,0.995092451,0.164062,0.811035,-0.552734,582,581,581,447,89
0,53.633,53633,102532,31.10502441,3110.502441,0.994190026,0.161621,0.809082,-0.554688,582,581,582,444,90
0,53.716,53716,102525,31.10217041,3110.217041,0.993884533,0.15918,0.811523,-0.55127,581,582,582,447,88
0,53.8,53800,102529,31.10132568,3110.132568,0.994792161,0.162109,0.810059,-0.554199,580,581,581,448,89
0,53.883,53883,102526,31.09989746,3109.989746,0.992817416,0.163086,0.808105,-0.553223,580,582,581,445,89
0,53.966,53966,102528,31.09970459,3109.970459,0.997240937,0.158203,0.8125,-0.556152,581,582,581,443,88
0,54.05,54050,102531,31.09697754,3109.697754,0.993354832,0.161621,0.810059,-0.551758,581,581,582,445,88
0,54.133,54133,102528,31.09541992,3109.541992,0.99604935,0.160156,0.812988,-0.552734,581,580,582,444,90
0,54.216,54216,102526,31.09535645,3109.535645,0.993786712,0.160156,0.810547,-0.552246,582,582,582,445,88
0,54.3,54300,102530,31.0919165,3109.19165,0.993055523,0.162109,0.808594,-0.553223,582,582,582,446,90
0,54.383,54383,102529,31.09302002,3109.302002,0.996420061,0.15918,0.813965,-0.552246,580,582,583,444,89
0,54.466,54466,102528,31.09120117,3109.120117,0.995204543,0.160645,0.811523,-0.553223,580,582,584,447,90
0,54.55,54550,102532,31.08958008,3108.958008,0.995170228,0.162109,0.811523,-0.552734,581,581,584,445,89
0,54.633,54633,102528,31.08756836,3108.756836,0.993634666,0.160645,0.808594,-0.554688,579,582,582,446,91
0,54.716,54716,102529,31.08620361,3108.620361,0.995847761,0.161133,0.810547,-0.555664,581,583,582,444,88
0,54.8,54800,102529,31.08562012,3108.562012,0.996978705,0.15918,0.812988,-0.554688,582,581,582,446,89
0,54.883,54883,102527,31.08373779,3108.373779,0.99604935,0.160156,0.812988,-0.552734,581,581,581,446,88
0,54.966,54966,102530,31.08445312,3108.445312,0.995336778,0.162109,0.810059,-0.555176,581,580,584,444,88
0,55.05,55050,102531,31.08016846,3108.016846,0.994969115,0.15918,0.811523,-0.553223,580,581,581,445,88
0,55.133,55133,102526,31.07971436,3107.971436,0.993407881,0.158691,0.811035,-0.55127,581,583,584,447,89
0,55.216,55216,102529,31.07757324,3107.757324,0.996557336,0.161621,0.812988,-0.553223,580,580,582,447,89
0,55.3,55300,102530,31.07724854,3107.724854,0.994361754,0.161133,0.810059,-0.553711,581,581,583,447,90
0,55.383,55383,102527,31.07419922,3107.419922,0.996324044,0.161621,0.811035,-0.555664,584,581,583,444,89
0,55.466,55466,102532,31.07575684,3107.575684,0.995204543,0.160645,0.811523,-0.553223,581,581,583,446,89
0,55.55,55550,102526,31.0745874,3107.45874,0.996478309,0.161133,0.812988,-0.553223,581,583,582,446,89
0,55.633,55633,102528,31.07108398,3107.108398,0.995397104,0.160156,0.811523,-0.553711,582,580,582,446,88
0,55.716,55716,102526,31.06939453,3106.939453,0.994764533,0.158691,0.811035,-0.553711,581,581,584,444,89
0,55.8,55800,102532,31.06939453,3106.939453,0.995658794,0.15918,0.811035,-0.555176,581,582,583,445,90
0,55.883,55883,102529,31.06829102,3106.829102,0.995189579,0.162109,0.810547,-0.554199,581,580,581,445,88
0,55.966,55966,102529,31.06654053,3106.654053,0.995090851,0.161621,0.811523,-0.552734,581,582,582,444,88
0,56.05,56050,102529,31.06394287,3106.394287,0.995541725,0.162598,0.810547,-0.554688,580,581,582,444,88
0,56.133,56133,102531,31.06375,3106.375,0.996272522,0.160645,0.8125,-0.553711,581,581,582,446,88
0,56.216,56216,102530,31.06219238,3106.219238,0.993816529,0.162109,0.811523,-0.550293,582,581,582,446,89
0,56.3,56300,102531,31.06050537,3106.050537,0.995617016,0.161621,0.8125,-0.552246,581,582,583,444,88
0,56.383,56383,102528,31.05829834,3105.829834,0.989389055,0.160156,0.806152,-0.550781,580,582,581,444,89
0,56.466,56466,102532,31.0572583,3105.72583,0.994906436,0.163574,0.80957,-0.554688,582,582,583,446,89
0,56.55,56550,102528,31.05888184,3105.888184,0.994199596,0.163574,0.811035,-0.55127,582,581,582,446,87
0,56.633,56633,102530,31.05381836,3105.381836,0.995681536,0.163574,0.811523,-0.553223,580,582,583,444,88
0,56.716,56716,102526,31.05180664,3105.180664,0.991984267,0.160645,0.80957,-0.550293,581,582,581,444,89
0,56.8,56800,102527,31.05330078,3105.330078,0.992671216,0.160645,0.809082,-0.552246,581,582,584,445,88
0,56.883,56883,102529,31.05213135,3105.213135,0.997172359,0.158691,0.812988,-0.555176,581,581,583,446,89
0,56.966,56966,102529,31.05018555,3105.018555,0.992876569,0.15918,0.807617,-0.555176,579,581,582,445,89
0,57.05,57050,102525,31.04655029,3104.655029,0.993756979,0.15918,0.811035,-0.551758,580,582,581,444,88
0,57.133,57133,102527,31.04726562,3104.726562,0.996328426,0.15918,0.811523,-0.555664,580,581,583,444,89
0,57.216,57216,102526,31.0449292,3104.49292,0.993703233,0.160156,0.808105,-0.555664,580,582,581,445,88
0,57.3,57300,102526,31.04356445,3104.356445,0.994504447,0.159668,0.811523,-0.552246,580,581,583,445,88
0,57.384,57384,102527,31.04187744,3104.187744,0.991809817,0.161133,0.808594,-0.55127,582,581,584,444,88
0,57.467,57467,102533,31.04259277,3104.259277,0.993872026,0.158203,0.811035,-0.552246,582,582,583,445,89
0,57.55,57550,102531,31.04155273,3104.155273,0.994463914,0.157715,0.811523,-0.552734,580,581,581,444,89
0,57.633,57633,102529,31.03915283,3103.915283,0.993376205,0.164062,0.808594,-0.553223,581,581,582,447,87
0,57.716,57716,102530,31.03824463,3103.824463,0.993629889,0.15918,0.810547,-0.552246,581,581,583,447,87
0,57.8,57800,102529,31.03616699,3103.616699,0.992944323,0.15918,0.811035,-0.550293,581,581,583,447,90
0,57.883,57883,102527,31.03363525,3103.363525,0.992624146,0.159668,0.810547,-0.550293,578,581,581,445,89
0,57.966,57966,102531,31.03597168,3103.597168,0.995543315,0.160156,0.811035,-0.554688,581,581,584,446,90
0,58.05,58050,102528,31.03350586,3103.350586,0.994859449,0.161621,0.80957,-0.555176,580,581,583,445,89
0,58.133,58133,102531,31.03091064,3103.091064,0.995643347,0.163086,0.80957,-0.556152,581,579,581,445,89
0,58.216,58216,102529,31.03091064,3103.091064,0.996278482,0.162109,0.810547,-0.556152,580,581,583,445,87
0,58.3,58300,102529,31.0294165,3102.94165,0.995157658,0.163574,0.810547,-0.553711,580,583,584,445,89
0,58.383,58383,102526,31.02591309,3102.591309,0.994487793,0.161133,0.810547,-0.553223,581,582,581,443,89
0,58.467,58467,102535,31.02526367,3102.526367,0.994297138,0.164062,0.810059,-0.552734,581,581,581,446,88
0,58.55,58550,102528,31.02240723,3102.240723,0.996622609,0.161133,0.8125,-0.554199,579,581,583,444,89
0,58.633,58633,102526,31.02273193,3102.273193,0.994826319,0.163086,0.80957,-0.554688,582,581,581,445,87
0,58.717,58717,102531,31.02039551,3102.039551,0.995189579,0.162109,0.810547,-0.554199,582,582,582,444,89
0,58.8,58800,102527,31.01994141,3101.994141,0.995590268,0.159668,0.811523,-0.554199,581,581,584,446,89
0,58.883,58883,102529,31.0176709,3101.76709,0.9963702,0.159668,0.813477,-0.552734,581,582,581,447,88
0,58.966,58966,102529,31.0172168,3101.72168,0.995134415,0.164062,0.809082,-0.555664,580,581,582,447,89
0,59.05,59050,102530,31.01740967,3101.740967,0.99327555,0.161133,0.810059,-0.551758,581,583,583,444,90
0,59.133,59133,102528,31.01416504,3101.416504,0.99557643,0.163574,0.810059,-0.555176,581,580,582,445,88
0,59.216,59216,102529,31.01397217,3101.397217,0.995139024,0.163574,0.811523,-0.552246,581,579,582,445,90
0,59.3,59300,102531,31.01176514,3101.176514,0.994426215,0.15918,0.811523,-0.552246,581,581,582,445,88
0,59.383,59383,102525,31.01182861,3101.182861,0.995362554,0.161621,0.811523,-0.553223,581,580,582,444,89
0,59.466,59466,102525,31.00903809,3100.903809,0.993849136,0.160645,0.811523,-0.550781,582,580,583,444,90
0,59.55,59550,102529,31.00696289,3100.696289,0.993671435,0.15918,0.808594,-0.555176,581,581,583,446,89
0,59.633,59633,102534,31.00754639,3100.754639,0.994319057,0.15918,0.810059,-0.554199,581,581,581,445,89
0,59.716,59716,102530,31.00546875,3100.546875,0.998309887,0.162598,0.814941,-0.553223,581,581,582,445,89
0,59.8,59800,102527,31.00339111,3100.339111,0.996641554,0.159668,0.813477,-0.553223,582,582,582,447,90
0,59.883,59883,102526,31.00339111,3100.339111,0.993785358,0.162598,0.810059,-0.552246,582,580,582,446,89
0,59.966,59966,102531,31.0021582,3100.21582,0.993660104,0.160156,0.810059,-0.552734,581,582,582,445,87
0,60.05,60050,102532,31.00105469,3100.105469,0.994566978,0.161621,0.810547,-0.553223,581,580,584,444,87
0,60.133,60133,102534,30.9998877,3099.98877,0.995125727,0.160156,0.811523,-0.553223,580,580,583,447,89
0,60.216,60216,102524,30.99716309,3099.716309,0.996721329,0.161621,0.811523,-0.555664,580,583,582,445,88
0,60.3,60300,102531,30.99644775,3099.644775,0.996472272,0.161621,0.810547,-0.556641,581,581,583,444,90
0,60.383,60383,102531,30.99450195,3099.450195,0.996009586,0.164551,0.810059,-0.555664,582,581,584,446,89
0,60.466,60466,102525,30.99229492,3099.229492,0.992933581,0.15625,0.808594,-0.554688,581,581,583,445,89
0,60.55,60550,102531,30.99268311,3099.268311,0.993057521,0.159668,0.809082,-0.553223,579,581,583,445,88
0,60.633,60633,102532,30.9919043,3099.19043,0.992112865,0.160645,0.810059,-0.549805,581,582,581,444,90
0,60.716,60716,102527,30.99164551,3099.164551,0.994225336,0.160156,0.809082,-0.555176,581,582,583,445,88
0,60.8,60800,102527,30.98963379,3098.963379,0.994462378,0.161621,0.809082,-0.555176,581,582,582,444,90
0,60.883,60883,102528,30.98865967,3098.865967,0.993227354,0.161621,0.80957,-0.552246,582,580,581,446,89
0,60.966,60966,102529,30.98586914,3098.586914,0.992055665,0.161621,0.807129,-0.553711,581,581,582,443,89
0,61.05,61050,102530,30.98255859,3098.255859,0.997036713,0.164551,0.812988,-0.553223,581,580,581,445,87
0,61.133,61133,102530,30.98554443,3098.554443,0.994853958,0.160156,0.811523,-0.552734,581,581,582,445,89
0,61.216,61216,102533,30.98262451,3098.262451,0.997132477,0.161133,0.814453,-0.552246,580,581,581,445,88
0,61.3,61300,102528,30.98320801,3098.320801,0.993077703,0.162109,0.807617,-0.554688,579,581,580,446,89
0,61.383,61383,102531,30.98054688,3098.054688,0.991252713,0.162598,0.807617,-0.55127,582,580,582,444,89
0,61.466,61466,102526,30.9809375,3098.09375,0.994792161,0.162109,0.810059,-0.554199,579,583,582,445,88
0,61.55,61550,102528,30.97931396,3097.931396,0.993004552,0.161133,0.810059,-0.55127,579,581,581,445,89
0,61.633,61633,102527,30.97671875,3097.671875,0.992577819,0.161621,0.808105,-0.553223,581,580,583,444,89
0,61.716,61716,102529,30.97613525,3097.613525,0.9954759,0.160645,0.811523,-0.553711,581,580,581,446,89
0,61.8,61800,102530,30.97327881,3097.327881,0.995330831,0.158691,0.810059,-0.556152,581,582,582,447,89
0,61.883,61883,102528,30.97366699,3097.366699,0.993157798,0.160156,0.808105,-0.554688,580,582,582,446,89
0,61.966,61966,102528,30.9719165,3097.19165,0.996795977,0.163086,0.812988,-0.553223,581,581,582,446,90
0,62.05,62050,102526,30.97003418,3097.003418,0.997883779,0.160645,0.813477,-0.555176,580,580,583,445,88
0,62.133,62133,102530,30.97055176,3097.055176,0.994057975,0.160156,0.810547,-0.552734,582,581,581,443,88
0,62.216,62216,102530,30.96990479,3096.990479,0.993509385,0.160645,0.808105,-0.555176,580,580,582,446,89
0,62.3,62300,102531,30.96607422,3096.607422,0.997993656,0.160645,0.814941,-0.553223,580,582,582,445,88
0,62.383,62383,102531,30.96756836,3096.756836,0.996046803,0.162598,0.8125,-0.552734,580,580,581,444,87
0,62.466,62466,102529,30.96399902,3096.399902,0.995930984,0.15918,0.811035,-0.555664,582,582,583,446,90
0,62.55,62550,102527,30.9630249,3096.30249,0.991267112,0.161133,0.808594,-0.550293,579,580,584,443,91
0,62.634,62634,102529,30.95997314,3095.997314,0.995826267,0.161133,0.811523,-0.554199,582,581,581,445,89
0,62.717,62717,102532,30.96230957,3096.230957,0.994120218,0.160645,0.811523,-0.55127,581,582,581,445,88
0,62.8,62800,102528,30.95822266,3095.822266,0.993770212,0.160156,0.811523,-0.550781,582,582,582,447,90
0,62.883,62883,102530,30.95634033,3095.634033,0.995922629,0.160156,0.8125,-0.553223,579,581,581,446,88
0,62.966,62966,102531,30.95588623,3095.588623,0.992000646,0.161133,0.806152,-0.555176,579,582,583,447,89
0,63.05,63050,102527,30.95452148,3095.452148,0.993104593,0.15918,0.80957,-0.552734,581,580,580,444,90
0,63.134,63134,102529,30.95290039,3095.290039,0.995125727,0.160156,0.811523,-0.553223,580,582,583,443,89
0,63.217,63217,102527,30.95290039,3095.290039,0.993600952,0.158203,0.811035,-0.551758,579,581,582,445,89
0,63.3,63300,102530,30.95205566,3095.205566,0.994504447,0.159668,0.811523,-0.552246,582,581,583,446,89
0,63.383,63383,102523,30.95088867,3095.088867,0.993625974,0.161621,0.810059,-0.552246,582,581,583,445,90
0,63.466,63466,102525,30.94842285,3094.842285,0.993959951,0.157715,0.80957,-0.554688,579,581,582,444,88
0,63.55,63550,102530,30.94900635,3094.900635,0.992733165,0.161133,0.810059,-0.550781,581,582,583,445,89
0,63.633,63633,102525,30.94692871,3094.692871,0.991352063,0.160645,0.807129,-0.552734,581,580,583,445,90
0,63.716,63716,102527,30.94550049,3094.550049,0.990837898,0.160156,0.808594,-0.549805,582,580,582,443,89
0,63.8,63800,102527,30.94206299,3094.206299,0.99375904,0.160645,0.809082,-0.554199,580,581,582,446,89
0,63.883,63883,102527,30.94076416,3094.076416,0.993850391,0.162109,0.80957,-0.553223,581,582,582,446,89
0,63.966,63966,102528,30.94134766,3094.134766,0.991875069,0.160645,0.808105,-0.552246,580,584,583,445,88
0,64.05,64050,102530,30.94043945,3094.043945,0.998668082,0.159668,0.813965,-0.556152,581,580,582,443,88
0,64.133,64133,102525,30.93862305,3093.862305,0.993673575,0.161133,0.810547,-0.551758,580,582,583,445,89
0,64.216,64216,102529,30.93758301,3093.758301,0.994332512,0.165039,0.80957,-0.553223,581,582,581,447,87
0,64.3,64300,102528,30.935896,3093.5896,0.992689679,0.157227,0.808105,-0.554688,580,581,583,445,88
0,64.383,64383,102530,30.93524658,3093.524658,0.995397104,0.160156,0.811523,-0.553711,581,582,581,445,89
0,64.466,64466,102527,30.93349609,3093.349609,0.996256837,0.162109,0.811523,-0.554688,583,582,583,444,90
0,64.55,64550,102525,30.93154785,3093.154785,0.99659629,0.161621,0.811035,-0.556152,580,582,580,445,88
0,64.633,64633,102527,30.93096436,3093.096436,0.995862554,0.159668,0.811523,-0.554688,581,582,581,444,88
0,64.716,64716,102526,30.92992676,3092.992676,0.991367164,0.15918,0.808105,-0.551758,582,580,582,446,87
0,64.8,64800,102533,30.93038086,3093.038086,0.993612645,0.160645,0.80957,-0.553223,581,583,583,445,89
0,64.883,64883,102532,30.92882324,3092.882324,0.995713201,0.162109,0.811523,-0.553711,580,581,582,444,89
0,64.966,64966,102526,30.92603271,3092.603271,0.993087773,0.15918,0.810547,-0.55127,582,580,582,446,90
0,65.05,65050,102527,30.92499268,3092.499268,0.99470808,0.158203,0.810059,-0.555176,579,580,580,443,89
0,65.133,65133,102524,30.92453857,3092.453857,0.993083855,0.161621,0.810059,-0.55127,580,580,582,445,88
0,65.217,65217,102528,30.91986572,3091.986572,0.995236148,0.161621,0.811035,-0.553711,582,582,581,445,88
0,65.3,65300,102527,30.92181396,3092.181396,0.993968958,0.158691,0.810059,-0.553711,580,583,582,447,89
0,65.383,65383,102528,30.92116455,3092.116455,0.99604935,0.160156,0.812988,-0.552734,582,580,582,445,88
0,65.466,65466,102525,30.91980225,3091.980225,0.993115595,0.162598,0.80957,-0.551758,582,581,582,447,89
0,65.55,65550,102525,30.91700928,3091.700928,0.994455871,0.161133,0.8125,-0.550293,581,581,581,446,88
0,65.634,65634,102530,30.91623047,3091.623047,0.995475106,0.163086,0.811035,-0.553711,582,581,582,446,87
0,65.717,65717,102528,30.91454346,3091.454346,0.994421824,0.161621,0.811035,-0.552246,582,581,583,445,89
0,65.801,65801,102530,30.91415527,3091.415527,0.997736641,0.163086,0.813477,-0.554199,581,581,582,444,89
0,65.885,65885,102532,30.91233887,3091.233887,0.995892883,0.15918,0.812988,-0.552734,581,580,583,446,89
0,65.968,65968,102527,30.91013184,3091.013184,0.993320627,0.158691,0.808594,-0.554688,579,582,583,444,88
0,66.051,66051,102530,30.90980713,3090.980713,0.995362554,0.161621,0.811523,-0.553223,581,582,582,444,88
0,66.134,66134,102528,30.91156006,3091.156006,0.996244998,0.161133,0.811035,-0.555664,580,582,582,444,88
0,66.217,66217,102529,30.90870361,3090.870361,0.992334187,0.161133,0.80957,-0.550781,579,581,582,445,89
0,66.3,66300,102524,30.90682129,3090.682129,0.994601556,0.160156,0.810547,-0.553711,581,582,581,444,88
0,66.383,66383,102526,30.90636719,3090.636719,0.997194846,0.163086,0.813477,-0.553223,581,581,583,445,89
0,66.467,66467,102528,30.90455078,3090.455078,0.993959613,0.162109,0.811035,-0.55127,581,582,583,446,90
0,66.55,66550,102531,30.90364014,3090.364014,0.995474886,0.161133,0.809082,-0.557129,580,581,583,445,88
0,66.633,66633,102526,30.90260254,3090.260254,0.993566001,0.161133,0.809082,-0.553711,582,581,583,445,87
0,66.716,66716,102529,30.90227783,3090.227783,0.992892049,0.162109,0.810059,-0.550781,582,581,581,444,89
0,66.8,66800,102526,30.90013672,3090.013672,0.994298034,0.160156,0.8125,-0.550293,580,579,584,446,88
0,66.883,66883,102526,30.89695557,3089.695557,0.996557336,0.161621,0.812988,-0.553223,582,580,582,443,87
0,66.966,66966,102526,30.89773438,3089.773438,0.995713201,0.162109,0.811523,-0.553711,582,580,582,445,88
0,67.05,67050,102529,30.89565918,3089.565918,0.993220752,0.158203,0.80957,-0.553223,581,582,582,444,90
0,67.133,67133,102527,30.89429443,3089.429443,0.994155291,0.15918,0.811523,-0.551758,582,581,583,446,89
0,67.216,67216,102530,30.89325684,3089.325684,0.993259925,0.163574,0.810547,-0.550293,582,582,583,446,89
0,67.3,67300,102527,30.89254395,3089.254395,0.995303502,0.161133,0.810547,-0.554688,580,580,582,445,89
0,67.383,67383,102528,30.89066162,3089.066162,0.996912364,0.160645,0.814941,-0.55127,582,581,583,444,89
0,67.466,67466,102526,30.89040039,3089.040039,0.997943559,0.163574,0.813965,-0.553711,579,580,582,446,87
0,67.55,67550,102527,30.88800049,3088.800049,0.993280506,0.158691,0.810547,-0.551758,581,581,583,446,90
0,67.633,67633,102528,30.88767578,3088.767578,0.994979062,0.162598,0.811523,-0.552246,580,582,583,445,89
0,67.716,67716,102527,30.88540527,3088.540527,0.994775515,0.159668,0.811523,-0.552734,582,581,583,447,89
0,67.8,67800,102528,30.88527344,3088.527344,0.993148062,0.161133,0.80957,-0.552246,581,582,581,446,89
0,67.883,67883,102528,30.88391113,3088.391113,0.994917926,0.160645,0.8125,-0.55127,582,581,581,444,90
0,67.966,67966,102527,30.88326172,3088.326172,0.992767882,0.159668,0.810059,-0.55127,581,581,582,445,89
0,68.05,68050,102527,30.88267822,3088.267822,0.992853665,0.15918,0.808594,-0.553711,581,582,582,447,90
0,68.133,68133,102525,30.8797583,3087.97583,0.994938844,0.162109,0.80957,-0.555176,580,582,582,446,89
0,68.216,68216,102526,30.88241943,3088.241943,0.999761125,0.161621,0.815918,-0.554688,581,582,582,445,89
0,68.3,68300,102528,30.87878418,3087.878418,0.992892144,0.157715,0.808594,-0.554199,582,582,581,446,87
0,68.383,68383,102530,30.87735596,3087.735596,0.993396248,0.157715,0.810547,-0.552246,581,582,581,444,87
0,68.467,68467,102523,30.87541016,3087.541016,0.993996752,0.162109,0.809082,-0.554199,581,580,583,445,89
0,68.55,68550,102530,30.87605957,3087.605957,0.995145799,0.160156,0.810547,-0.554688,581,581,583,444,89
0,68.633,68633,102529,30.87294434,3087.294434,0.994086826,0.162109,0.811523,-0.550781,582,581,584,445,89
0,68.716,68716,102530,30.87378662,3087.378662,0.996824202,0.162109,0.810547,-0.557129,580,580,583,445,89
0,68.8,68800,102528,30.87138672,3087.138672,0.993083855,0.161621,0.810059,-0.55127,580,580,583,445,88
0,68.883,68883,102529,30.86905029,3086.905029,0.997146836,0.163574,0.812988,-0.553711,579,580,583,446,89
0,68.966,68966,102529,30.87080078,3087.080078,0.993739037,0.160645,0.810059,-0.552734,580,581,583,444,90
0,69.05,69050,102533,30.86911377,3086.911377,0.99282963,0.161621,0.809082,-0.552246,580,584,584,445,89
0,69.133,69133,102531,30.86794678,3086.794678,0.995162441,0.158691,0.811523,-0.553711,580,581,582,448,88
0,69.216,69216,102526,30.86606445,3086.606445,0.994350193,0.160156,0.80957,-0.554688,583,580,581,444,89
0,69.3,69300,102529,30.86385742,3086.385742,0.996829204,0.164062,0.8125,-0.553711,583,582,581,445,88
0,69.383,69383,102527,30.86346924,3086.346924,0.994566978,0.161621,0.810547,-0.553223,582,582,582,446,89
0,69.466,69466,102524,30.86281982,3086.281982,0.991931239,0.161621,0.806641,-0.554199,580,581,583,445,89
0,69.55,69550,102527,30.85892578,3085.892578,0.993897281,0.161621,0.810059,-0.552734,580,581,582,443,89
0,69.633,69633,102530,30.85704346,3085.704346,0.995283432,0.161133,0.811523,-0.553223,581,581,582,445,90
0,69.716,69716,102531,30.85827637,3085.827637,0.994199596,0.163574,0.811035,-0.55127,580,582,583,444,90
0,69.8,69800,102526,30.85561523,3085.561523,0.992230802,0.158691,0.808594,-0.552734,581,582,582,446,88
0,69.884,69884,102527,30.85606934,3085.606934,0.994475771,0.160156,0.810059,-0.554199,581,580,582,446,89
0,69.967,69967,102530,30.8529541,3085.29541,0.992340326,0.160156,0.808105,-0.553223,580,581,582,446,88
0,70.05,70050,102525,30.85217529,3085.217529,0.993581566,0.159668,0.810059,-0.552734,582,583,584,445,89
0,70.133,70133,102526,30.8535376,3085.35376,0.991730652,0.160645,0.808594,-0.55127,581,581,581,444,87
0,70.216,70216,102527,30.85197998,3085.197998,0.994086826,0.162109,0.811523,-0.550781,581,582,583,445,90
0,70.3,70300,102529,30.85074707,3085.074707,0.993182929,0.159668,0.80957,-0.552734,580,582,580,443,89
0,70.383,70383,102526,30.84945068,3084.945068,0.992911426,0.159668,0.80957,-0.552246,582,582,581,445,88
0,70.466,70466,102526,30.84854004,3084.854004,0.993648695,0.15918,0.80957,-0.553711,580,582,582,446,89
0,70.55,70550,102530,30.84445312,3084.445312,0.995601482,0.163086,0.811523,-0.553223,580,582,582,447,89
0,70.633,70633,102526,30.84334961,3084.334961,0.993385381,0.160645,0.807617,-0.555664,581,582,582,446,89
0,70.716,70716,102529,30.8436084,3084.36084,0.992320138,0.162598,0.808594,-0.551758,581,581,584,446,88
0,70.8,70800,102529,30.84205078,3084.205078,0.993785358,0.162598,0.810059,-0.552246,582,581,584,446,87
0,70.883,70883,102528,30.8427002,3084.27002,0.994952153,0.160645,0.810547,-0.554199,581,580,583,447,88
0,70.966,70966,102524,30.83906494,3083.906494,0.994716665,0.15918,0.810547,-0.554199,580,581,583,444,89
0,71.05,71050,102528,30.83815674,3083.815674,0.993932199,0.160156,0.810059,-0.553223,581,582,582,443,87
0,71.134,71134,102527,30.83854736,3083.854736,0.99150694,0.160156,0.809082,-0.550293,579,581,583,444,87
0,71.218,71218,102529,30.83653564,3083.653564,0.993838044,0.161133,0.809082,-0.554199,579,582,582,445,87
0,71.301,71301,102525,30.83653564,3083.653564,0.993486113,0.15918,0.811035,-0.55127,581,581,580,445,88
0,71.384,71384,102522,30.83452148,3083.452148,0.996001382,0.160645,0.8125,-0.553223,580,582,582,445,88
0,71.467,71467,102531,30.83445801,3083.445801,0.992192,0.161133,0.810059,-0.549805,582,582,582,446,89
0,71.55,71550,102529,30.8332251,3083.32251,0.995590268,0.159668,0.811523,-0.554199,582,581,582,448,90
0,71.633,71633,102526,30.83147217,3083.147217,0.992230802,0.158691,0.808594,-0.552734,582,581,581,445,88
0,71.716,71716,102528,30.83101807,3083.101807,0.993800899,0.161133,0.811035,-0.55127,582,580,583,445,89
0,71.8,71800,102525,30.83010986,3083.010986,0.993770212,0.160156,0.811523,-0.550781,582,582,579,445,87
0,71.883,71883,102525,30.82718994,3082.718994,0.993678769,0.158691,0.811035,-0.551758,582,581,582,447,90
0,71.966,71966,102527,30.82712402,3082.712402,0.995090851,0.161621,0.811523,-0.552734,581,580,583,446,87
0,72.05,72050,102526,30.82666992,3082.666992,0.995475106,0.163086,0.811035,-0.553711,582,581,583,444,89
0,72.133,72133,102528,30.82725342,3082.725342,0.993499829,0.160156,0.811523,-0.550293,581,582,581,446,88
0,72.216,72216,102525,30.82303467,3082.303467,0.993227354,0.161621,0.80957,-0.552246,581,580,583,443,89
0,72.3,72300,102526,30.82251709,3082.251709,0.995267293,0.161133,0.8125,-0.551758,581,581,581,444,87
0,72.384,72384,102524,30.81868652,3081.868652,0.995011707,0.161133,0.811523,-0.552734,581,581,584,446,89
0,72.467,72467,102527,30.82031006,3082.031006,0.993600952,0.158203,0.811035,-0.551758,581,581,584,445,88
0,72.55,72550,102526,30.82031006,3082.031006,0.995318703,0.159668,0.811523,-0.553711,581,580,583,445,88
0,72.633,72633,102531,30.82069824,3082.069824,0.995329844,0.163086,0.811523,-0.552734,582,581,584,446,89
0,72.716,72716,102528,30.81920654,3081.920654,0.994964726,0.161621,0.811035,-0.553223,581,581,582,446,87
0,72.8,72800,102529,30.81583252,3081.583252,0.994806652,0.160645,0.811035,-0.553223,580,581,582,444,89
0,72.883,72883,102525,30.81511719,3081.511719,0.992932021,0.159668,0.808594,-0.553711,581,581,583,446,88
0,72.966,72966,102525,30.81375488,3081.375488,0.99401111,0.160645,0.810059,-0.553223,579,581,582,443,90
0,73.05,73050,102528,30.81336426,3081.336426,0.99464935,0.159668,0.811035,-0.553223,582,581,582,446,89
0,73.133,73133,102529,30.80979492,3080.979492,0.994806652,0.160645,0.811035,-0.553223,583,581,583,446,89
0,73.216,73216,102528,30.81297607,3081.297607,0.996318246,0.162598,0.8125,-0.553223,581,580,583,446,89
0,73.3,73300,102527,30.80940674,3080.940674,0.997673905,0.161133,0.814453,-0.553223,581,582,582,445,88
0,73.383,73383,102527,30.8074585,3080.74585,0.993180691,0.162109,0.809082,-0.552734,581,581,583,443,89
0,73.466,73466,102528,30.80784912,3080.784912,0.991828583,0.161133,0.807617,-0.552734,581,581,582,446,89
0,73.55,73550,102530,30.8079126,3080.79126,0.994661772,0.160645,0.811523,-0.552246,582,581,581,445,88
0,73.633,73633,102529,30.80421387,3080.421387,0.9970669,0.163086,0.812988,-0.553711,581,580,583,445,89
0,73.716,73716,102527,30.8044751,3080.44751,0.994913174,0.157227,0.8125,-0.552246,582,582,583,444,88
0,73.8,73800,102527,30.80278564,3080.278564,0.993227354,0.161621,0.80957,-0.552246,580,582,581,444,89
0,73.884,73884,102527,30.80174805,3080.174805,0.994309436,0.156738,0.811523,-0.552734,581,581,583,444,89
0,73.968,73968,102526,30.80103516,3080.103516,0.994868295,0.163574,0.811523,-0.551758,580,582,584,447,88
0,74.051,74051,102525,30.79869873,3079.869873,0.995318714,0.164551,0.810547,-0.553711,582,581,582,445,89
0,74.134,74134,102529,30.79921631,3079.921631,0.995610429,0.158203,0.8125,-0.553223,582,582,582,448,89
0,74.217,74217,102526,30.79499756,3079.499756,0.993535164,0.158691,0.811523,-0.550781,582,581,583,445,89
0,74.3,74300,102526,30.79610107,3079.610107,0.989961711,0.157715,0.805664,-0.553223,582,583,583,443,88
0,74.383,74383,102524,30.79642578,3079.642578,0.994917905,0.162109,0.810547,-0.553711,580,581,583,444,89
0,74.466,74466,102528,30.79441406,3079.441406,0.995318703,0.159668,0.811523,-0.553711,580,581,582,446,88
0,74.55,74550,102523,30.79279297,3079.279297,0.99249643,0.159668,0.810059,-0.550781,581,580,584,444,89
0,74.633,74633,102525,30.79026123,3079.026123,0.996894614,0.161133,0.8125,-0.554688,580,582,583,445,89
0,74.716,74716,102527,30.79136475,3079.136475,0.993235371,0.157227,0.808105,-0.555664,581,581,583,448,88
0,74.8,74800,102525,30.79032471,3079.032471,0.995441909,0.162109,0.811523,-0.553223,582,581,582,446,87
0,74.883,74883,102529,30.79006592,3079.006592,0.992878153,0.163574,0.809082,-0.551758,583,581,580,446,88
0,74.966,74966,102524,30.787146,3078.7146,0.993639883,0.156738,0.811035,-0.552246,582,582,582,445,89
0,75.05,75050,102525,30.78617188,3078.617188,0.993884436,0.160645,0.80957,-0.553711,580,579,582,445,88
0,75.133,75133,102529,30.78461426,3078.461426,0.993634666,0.160645,0.808594,-0.554688,582,581,583,445,88
0,75.216,75216,102523,30.78305664,3078.305664,0.994146842,0.159668,0.809082,-0.555176,581,582,581,448,90
0,75.3,75300,102528,30.78279785,3078.279785,0.995668647,0.160156,0.811523,-0.554199,580,580,583,447,89
0,75.383,75383,102528,30.78117432,3078.117432,0.993361599,0.163086,0.808105,-0.554199,582,582,582,446,89
0,75.466,75466,102526,30.78124023,3078.124023,0.993323647,0.160645,0.810547,-0.55127,580,582,583,444,89
0,75.55,75550,102529,30.7796167,3077.96167,0.994342627,0.161133,0.811035,-0.552246,581,582,583,445,88
0,75.633,75633,102529,30.77864502,3077.864502,0.998870219,0.161133,0.815918,-0.553223,579,581,582,445,89
0,75.716,75716,102525,30.77844971,3077.844971,0.996628744,0.158691,0.812988,-0.554199,581,582,584,445,88
0,75.8,75800,102525,30.77604736,3077.604736,0.991205794,0.160645,0.807617,-0.551758,582,581,584,446,91
0,75.884,75884,102526,30.77546387,3077.546387,0.994775515,0.159668,0.811523,-0.552734,580,582,583,445,89
0,75.967,75967,102528,30.77332275,3077.332275,0.994853958,0.160156,0.811523,-0.552734,581,581,581,444,89
0,76.05,76050,102528,30.77358154,3077.358154,0.992413544,0.161621,0.80957,-0.550781,582,581,583,445,88
0,76.133,76133,102526,30.77247803,3077.247803,0.995729853,0.160645,0.8125,-0.552734,580,580,581,444,88
0,76.216,76216,102526,30.77085693,3077.085693,0.991174139,0.159668,0.808105,-0.55127,581,580,581,444,88
0,76.3,76300,102526,30.77033691,3077.033691,0.995301846,0.159668,0.8125,-0.552246,581,583,582,448,88
0,76.383,76383,102525,30.770271,3077.0271,0.997100357,0.164062,0.8125,-0.554199,582,581,583,445,88
0,76.466,76466,102527,30.76696289,3076.696289,0.994041315,0.160156,0.811523,-0.55127,581,581,581,443,88
0,76.55,76550,102526,30.76767578,3076.767578,0.993388732,0.160156,0.810059,-0.552246,582,581,581,446,88
0,76.633,76633,102524,30.76559814,3076.559814,0.995862554,0.159668,0.811523,-0.554688,582,582,582,446,87
0,76.716,76716,102527,30.76540527,3076.540527,0.994170817,0.164062,0.80957,-0.553223,583,581,583,446,89
0,76.8,76800,102529,30.76326172,3076.326172,0.994150899,0.161621,0.811035,-0.551758,582,581,582,446,89
0,76.883,76883,102525,30.76339355,3076.339355,0.994233544,0.159668,0.811523,-0.551758,581,580,581,444,88
0,76.966,76966,102525,30.75995361,3075.995361,0.994029808,0.155762,0.811035,-0.553223,580,581,582,446,88
0,77.05,77050,102526,30.75845947,3075.845947,0.995842507,0.164551,0.811523,-0.553223,581,581,581,446,90
0,77.135,77135,102528,30.75729248,3075.729248,0.99599855,0.157227,0.8125,-0.554199,581,581,581,446,87
0,77.218,77218,102527,30.75742188,3075.742188,0.99464935,0.159668,0.811035,-0.553223,580,581,582,446,89
0,77.301,77301,102527,30.75476074,3075.476074,0.993125904,0.15918,0.808594,-0.554199,581,580,582,445,89
0,77.384,77384,102524,30.75528076,3075.528076,0.99264202,0.164551,0.808594,-0.551758,582,581,582,446,87
0,77.467,77467,102527,30.75489014,3075.489014,0.994155291,0.15918,0.811523,-0.551758,582,582,584,445,88
0,77.55,77550,102526,30.75456543,3075.456543,0.99429921,0.15918,0.811035,-0.552734,582,581,582,445,90
0,77.633,77633,102530,30.75346191,3075.346191,0.997306387,0.162109,0.813477,-0.553711,581,580,583,446,88
0,77.716,77716,102527,30.75463135,3075.463135,0.99463358,0.161133,0.810059,-0.554199,579,581,581,444,89
0,77.8,77800,102529,30.7499585,3074.99585,0.992532326,0.162109,0.807617,-0.553711,579,580,582,445,90
0,77.883,77883,102529,30.74930908,3074.930908,0.992754785,0.158691,0.80957,-0.552246,582,580,582,447,88
0,77.966,77966,102526,30.74878906,3074.878906,0.992526581,0.160645,0.80957,-0.55127,580,581,583,444,88
0,78.05,78050,102525,30.74651855,3074.651855,0.997162586,0.162109,0.813965,-0.552734,582,582,582,447,89
0,78.133,78133,102524,30.74534912,3074.534912,0.996990795,0.160156,0.813477,-0.553711,579,579,580,445,88
0,78.217,78217,102528,30.74606445,3074.606445,0.992710521,0.157715,0.811035,-0.550293,581,582,581,445,91
0,78.3,78300,102524,30.74470215,3074.470215,0.996484824,0.160156,0.811523,-0.555664,581,582,581,446,87
0,78.383,78383,102527,30.74269043,3074.269043,0.994221042,0.158691,0.811035,-0.552734,581,581,583,445,89
0,78.467,78467,102525,30.74249512,3074.249512,0.992446676,0.162598,0.809082,-0.55127,581,582,582,445,89
0,78.55,78550,102526,30.74028809,3074.028809,0.99287679,0.161133,0.80957,-0.551758,579,581,583,444,89
0,78.633,78633,102528,30.73892578,3073.892578,0.993069003,0.160645,0.80957,-0.552246,582,581,582,445,87
0,78.716,78716,102528,30.73950928,3073.950928,0.993884533,0.15918,0.811523,-0.55127,581,581,583,443,88
0,78.8,78800,102530,30.73593994,3073.593994,0.994526547,0.158203,0.8125,-0.55127,581,579,580,446,88
0,78.883,78883,102525,30.73808105,3073.808105,0.993949822,0.158691,0.811035,-0.552246,581,582,583,446,89
0,78.966,78966,102529,30.73671875,3073.671875,0.993775399,0.15918,0.810059,-0.553223,582,580,581,443,88
0,79.05,79050,102526,30.73606934,3073.606934,0.993639883,0.156738,0.811035,-0.552246,580,580,583,447,89
0,79.133,79133,102525,30.73321289,3073.321289,0.993667618,0.157715,0.810547,-0.552734,579,581,582,445,88
0,79.217,79217,102529,30.7310083,3073.10083,0.994155291,0.15918,0.811523,-0.551758,581,580,583,445,89
0,79.3,79300,102528,30.73172119,3073.172119,0.995270942,0.160156,0.811035,-0.554199,580,582,584,445,87
0,79.383,79383,102529,30.7315918,3073.15918,0.993437064,0.159668,0.810547,-0.551758,582,582,582,443,89
0,79.466,79466,102527,30.72931885,3072.931885,0.995283432,0.161133,0.811523,-0.553223,581,581,583,443,89
0,79.55,79550,102523,30.72828125,3072.828125,0.993728525,0.158203,0.811523,-0.55127,580,581,583,446,88
0,79.633,79633,102527,30.72672363,3072.672363,0.995336778,0.162109,0.810059,-0.555176,581,582,583,445,88
0,79.716,79716,102525,30.72581543,3072.581543,0.994007363,0.161621,0.811523,-0.550781,582,581,583,445,90
0,79.8,79800,102531,30.72354492,3072.354492,0.994501254,0.162109,0.811035,-0.552246,580,581,582,447,89
0,79.883,79883,102524,30.724646,3072.4646,0.993775399,0.15918,0.810059,-0.553223,582,581,582,447,88
0,79.966,79966,102527,30.7254248,3072.54248,0.992081141,0.161133,0.808594,-0.551758,580,581,583,445,89
0,80.05,80050,102527,30.7231543,3072.31543,0.993180691,0.162109,0.809082,-0.552734,581,581,583,445,90
0,80.133,80133,102528,30.72172607,3072.172607,0.996128094,0.160645,0.812988,-0.552734,581,582,581,442,89
0,80.216,80216,102527,30.71893555,3071.893555,0.994120218,0.160645,0.811523,-0.55127,581,582,583,446,88
0,80.3,80300,102525,30.71951904,3071.951904,0.994788175,0.163086,0.811523,-0.551758,581,579,582,443,90
0,80.383,80383,102529,30.71861084,3071.861084,0.993293185,0.159668,0.811035,-0.550781,581,581,581,446,89
0,80.466,80466,102524,30.71711914,3071.711914,0.993009402,0.162598,0.808105,-0.553711,580,580,579,446,88
0,80.55,80550,102526,30.71770264,3071.770264,0.994041315,0.160156,0.811523,-0.55127,581,580,582,445,88
0,80.633,80633,102525,30.71575684,3071.575684,0.995011707,0.161133,0.811523,-0.552734,581,581,583,446,88
0,80.716,80716,102527,30.7142627,3071.42627,0.996894614,0.161133,0.8125,-0.554688,581,581,581,445,87
0,80.8,80800,102524,30.71199219,3071.199219,0.994329961,0.160156,0.810547,-0.553223,579,580,582,446,87
0,80.883,80883,102524,30.71160156,3071.160156,0.995125727,0.160156,0.811523,-0.553223,581,580,580,443,89
0,80.966,80966,102528,30.71088867,3071.088867,0.992610509,0.159668,0.811523,-0.548828,581,581,582,443,89
0,81.05,81050,102525,30.71036865,3071.036865,0.992309127,0.15918,0.808594,-0.552734,581,583,581,444,87
0,81.133,81133,102523,30.70894043,3070.894043,0.995047304,0.159668,0.811523,-0.553223,581,580,584,445,87
0,81.217,81217,102528,30.71004395,3071.004395,0.995978315,0.158691,0.811523,-0.555176,581,581,582,446,88
0,81.3,81300,102529,30.70757812,3070.757812,0.993721337,0.163086,0.810547,-0.55127,582,581,583,444,89
0,81.383,81383,102529,30.70679932,3070.679932,0.991783373,0.161621,0.807129,-0.553223,579,582,582,444,88
0,81.466,81466,102526,30.70452881,3070.452881,0.995617016,0.161621,0.8125,-0.552246,582,580,581,445,90
0,81.55,81550,102530,30.70342529,3070.342529,0.997162586,0.162109,0.813965,-0.552734,579,580,581,443,88
0,81.633,81633,102528,30.70219238,3070.219238,0.995356369,0.158203,0.811523,-0.554199,579,582,583,444,87
0,81.716,81716,102525,30.70290527,3070.290527,0.997196834,0.160645,0.813965,-0.553223,579,582,581,444,89
0,81.8,81800,102528,30.70238525,3070.238525,0.993838044,0.161133,0.809082,-0.554199,580,580,581,446,88
0,81.883,81883,102532,30.69907715,3069.907715,0.99495297,0.15918,0.8125,-0.551758,579,582,582,446,88
0,81.966,81966,102530,30.70043945,3070.043945,0.997213659,0.160645,0.812988,-0.554688,582,581,582,445,89
0,82.05,82050,102526,30.69927246,3069.927246,0.992989142,0.162598,0.809082,-0.552246,581,580,581,445,88
0,82.133,82133,102531,30.69784424,3069.784424,0.992981119,0.157715,0.811035,-0.550781,582,581,582,446,89
0,82.216,82216,102529,30.6962207,3069.62207,0.99287679,0.161133,0.80957,-0.551758,581,580,580,444,89
0,82.3,82300,102523,30.69433838,3069.433838,0.993329464,0.159668,0.809082,-0.553711,579,580,582,446,89
0,82.383,82383,102527,30.69628662,3069.628662,0.994487793,0.161133,0.810547,-0.553223,581,581,584,444,88
0,82.466,82466,102526,30.69524658,3069.524658,0.994041315,0.160156,0.811523,-0.55127,581,581,582,445,88
0,82.55,82550,102528,30.69109375,3069.109375,0.99394463,0.161133,0.810547,-0.552246,582,581,582,447,90
0,82.634,82634,102525,30.68979492,3068.979492,0.993897685,0.159668,0.808105,-0.556152,581,581,583,447,87
0,82.717,82717,102525,30.69018555,3069.018555,0.994150899,0.161621,0.811035,-0.551758,581,582,583,444,89
0,82.8,82800,102526,30.68797852,3068.797852,0.995826377,0.164551,0.8125,-0.551758,580,580,582,447,89
0,82.883,82883,102528,30.68869141,3068.869141,0.99722718,0.161621,0.813477,-0.553711,581,582,584,446,87
0,82.966,82966,102527,30.6879126,3068.79126,0.995554767,0.161133,0.811523,-0.553711,581,583,581,445,89
0,83.05,83050,102528,30.68427979,3068.427979,0.992490794,0.157227,0.811523,-0.549316,580,580,582,445,88
0,83.134,83134,102523,30.68544678,3068.544678,0.993775399,0.15918,0.810059,-0.553223,580,581,583,444,89
0,83.217,83217,102528,30.68395508,3068.395508,0.993674458,0.163574,0.810059,-0.551758,583,582,582,445,90
0,83.301,83301,102524,30.68239746,3068.239746,0.996075701,0.157715,0.8125,-0.554199,581,582,582,445,89
0,83.384,83384,102527,30.68142334,3068.142334,0.993805515,0.160156,0.80957,-0.553711,582,581,582,446,89
0,83.467,83467,102523,30.67902344,3067.902344,0.996098489,0.161133,0.811523,-0.554688,580,583,583,444,88
0,83.55,83550,102532,30.68096924,3068.096924,0.995792931,0.162598,0.811523,-0.553711,580,580,581,447,90
0,83.633,83633,102526,30.68051514,3068.051514,0.993999326,0.158203,0.811523,-0.551758,582,582,582,444,88
0,83.716,83716,102524,30.6779834,3067.79834,0.995862554,0.159668,0.811523,-0.554688,581,579,583,444,88
0,83.8,83800,102528,30.67675049,3067.675049,0.99369719,0.158691,0.810059,-0.553223,580,581,581,445,89
0,83.883,83883,102525,30.6759082,3067.59082,0.994106938,0.160645,0.8125,-0.549805,582,581,583,445,88
0,83.966,83966,102527,30.6755835,3067.55835,0.992334187,0.161133,0.80957,-0.550781,581,580,583,447,89
0,84.05,84050,102527,30.67383057,3067.383057,0.994310199,0.162598,0.811035,-0.551758,581,582,583,446,88
0,84.133,84133,102528,30.67220703,3067.220703,0.993836573,0.160645,0.8125,-0.549316,581,584,583,444,88
0,84.216,84216,102527,30.67402588,3067.402588,0.992956103,0.161621,0.80957,-0.551758,581,580,583,444,89
0,84.3,84300,102527,30.67084473,3067.084473,0.998629611,0.162109,0.81543,-0.553223,582,582,582,446,88
0,84.383,84383,102523,30.66974121,3066.974121,0.994411501,0.15918,0.8125,-0.550781,581,581,582,443,89
0,84.467,84467,102527,30.66734131,3066.734131,0.993310172,0.159668,0.810059,-0.552246,581,582,582,445,89
0,84.55,84550,102525,30.66740479,3066.740479,0.995099387,0.160645,0.810059,-0.555176,580,582,582,445,88
0,84.633,84633,102525,30.66675537,3066.675537,0.991301083,0.159668,0.808594,-0.550781,580,582,582,446,87
0,84.716,84716,102525,30.66500488,3066.500488,0.997708245,0.163086,0.81543,-0.55127,581,581,583,444,89
0,84.8,84800,102526,30.66448486,3066.448486,0.994487793,0.161133,0.810547,-0.553223,581,581,583,444,88
0,84.883,84883,102525,30.66325195,3066.325195,0.993708183,0.159668,0.810547,-0.552246,579,580,582,448,89
0,84.966,84966,102527,30.66422607,3066.422607,0.993818043,0.161133,0.810059,-0.552734,581,581,581,445,90
0,85.05,85050,102524,30.66396484,3066.396484,0.995806085,0.15918,0.810547,-0.556152,580,581,579,444,87
0,85.133,85133,102526,30.66091553,3066.091553,0.990343767,0.161133,0.807129,-0.550781,581,581,582,445,87
0,85.216,85216,102523,30.66020264,3066.020264,0.995441909,0.162109,0.811523,-0.553223,581,581,582,445,89
0,85.3,85300,102528,30.65942383,3065.942383,0.996001382,0.160645,0.8125,-0.553223,581,580,583,446,88
0,85.383,85383,102525,30.65792969,3065.792969,0.994680414,0.160645,0.810547,-0.553711,581,581,582,445,89
0,85.466,85466,102521,30.65825439,3065.825439,0.99724546,0.160156,0.814453,-0.552734,580,581,582,446,88
0,85.55,85550,102525,30.65371094,3065.371094,0.991777867,0.160156,0.809082,-0.550781,579,579,582,444,88
0,85.633,85633,102522,30.65526855,3065.526855,0.996685031,0.161621,0.813477,-0.552734,582,580,583,445,89
0,85.716,85716,102526,30.65585205,3065.585205,0.994939942,0.15918,0.813477,-0.550293,579,581,582,445,88
0,85.8,85800,102523,30.65513916,3065.513916,0.996256639,0.160645,0.813477,-0.552246,581,581,583,446,87
0,85.883,85883,102526,30.65202393,3065.202393,0.993354832,0.161621,0.810059,-0.551758,581,580,582,446,87
0,85.966,85966,102524,30.65053223,3065.053223,0.995595254,0.158203,0.813477,-0.551758,579,582,582,446,88
0,86.05,86050,102527,30.650271,3065.0271,0.992384952,0.162109,0.808105,-0.552734,582,581,582,444,88
0,86.133,86133,102522,30.649104,3064.9104,0.995078117,0.160645,0.811035,-0.553711,581,580,581,445,89
0,86.216,86216,102526,30.64942871,3064.942871,0.993396248,0.157715,0.810547,-0.552246,581,582,583,445,88
0,86.3,86300,102523,30.64741699,3064.741699,0.99569635,0.162109,0.8125,-0.552246,582,581,581,445,89
0,86.383,86383,102526,30.64657227,3064.657227,0.995109584,0.160156,0.8125,-0.551758,579,582,581,444,89
0,86.466,86466,102524,30.64585938,3064.585938,0.995428625,0.161133,0.811035,-0.554199,582,581,581,445,88
0,86.55,86550,102524,30.64449463,3064.449463,0.993985324,0.158203,0.8125,-0.550293,580,581,583,445,87
0,86.633,86633,102523,30.64566406,3064.566406,0.993679117,0.159668,0.8125,-0.549316,579,580,583,445,88
0,86.716,86716,102527,30.64456055,3064.456055,0.993083855,0.161621,0.810059,-0.55127,580,580,583,445,87
0,86.8,86800,102526,30.64137939,3064.137939,0.994199193,0.161133,0.811523,-0.55127,581,582,583,446,89
0,86.883,86883,102527,30.64086182,3064.086182,0.993884533,0.15918,0.811523,-0.55127,581,579,582,446,89
0,86.966,86966,102526,30.63995361,3063.995361,0.996930545,0.159668,0.8125,-0.555176,581,582,584,447,89
0,87.05,87050,102526,30.63664307,3063.664307,0.995892883,0.15918,0.812988,-0.552734,581,582,582,444,88
0,87.133,87133,102524,30.63592773,3063.592773,0.99606504,0.161133,0.813477,-0.551758,581,582,582,444,87
0,87.216,87216,102526,30.63631836,3063.631836,0.9954759,0.160645,0.811523,-0.553711,581,580,582,443,88
0,87.3,87300,102525,30.63651367,3063.651367,0.994819869,0.161621,0.811523,-0.552246,580,581,581,445,89
0,87.383,87383,102527,30.63450195,3063.450195,0.994932797,0.160645,0.811523,-0.552734,582,579,581,447,90
0,87.466,87466,102526,30.63346191,3063.346191,0.991872205,0.161621,0.80957,-0.549805,582,580,583,446,88
0,87.55,87550,102528,30.63242432,3063.242432,0.993214858,0.15918,0.811035,-0.550781,583,581,582,446,88
0,87.633,87633,102523,30.63326904,3063.326904,0.995204543,0.160645,0.811523,-0.553223,582,582,582,446,88
0,87.716,87716,102524,30.63307373,3063.307373,0.994041315,0.160156,0.811523,-0.55127,582,581,582,446,87
0,87.8,87800,102526,30.629375,3062.9375,0.994759345,0.161133,0.810547,-0.553711,582,582,583,446,88
0,87.883,87883,102525,30.62956787,3062.956787,0.995076318,0.157227,0.811035,-0.554688,582,582,582,446,88
0,87.966,87966,102525,30.62872559,3062.872559,0.9954759,0.160645,0.811523,-0.553711,580,582,582,445,88
0,88.05,88050,102526,30.62690674,3062.690674,0.993038944,0.159668,0.810059,-0.551758,579,581,582,444,87
0,88.133,88133,102524,30.62677734,3062.677734,0.994475771,0.160156,0.810059,-0.554199,579,582,580,444,89
0,88.216,88216,102526,30.62554443,3062.554443,0.99463358,0.161133,0.810059,-0.554199,581,580,583,445,89
0,88.3,88300,102523,30.62515625,3062.515625,0.991929733,0.157715,0.809082,-0.551758,581,583,585,446,89
0,88.383,88383,102525,30.62366211,3062.366211,0.99482721,0.160645,0.810059,-0.554688,581,581,583,446,90
0,88.467,88467,102524,30.62327393,3062.327393,0.997039909,0.159668,0.813965,-0.553223,581,581,581,447,88
0,88.551,88551,102525,30.62074219,3062.074219,0.991989131,0.159668,0.808105,-0.552734,582,581,581,445,89
0,88.634,88634,102526,30.61989746,3061.989746,0.994077111,0.158691,0.811523,-0.551758,580,581,583,448,89
0,88.717,88717,102522,30.61814697,3061.814697,0.996968866,0.158203,0.8125,-0.555664,581,583,582,445,89
0,88.8,88800,102528,30.61976807,3061.976807,0.995617016,0.161621,0.8125,-0.552246,581,581,582,445,89
0,88.883,88883,102524,30.61490234,3061.490234,0.994932797,0.160645,0.811523,-0.552734,582,582,582,443,89
0,88.966,88966,102526,30.61743164,3061.743164,0.99141119,0.161133,0.808105,-0.55127,582,581,582,444,89
0,89.05,89050,102524,30.61600586,3061.600586,0.993486113,0.15918,0.811035,-0.55127,581,582,583,446,89
0,89.134,89134,102527,30.61490234,3061.490234,0.993871249,0.15918,0.8125,-0.549805,580,581,584,444,90
0,89.217,89217,102523,30.61360352,3061.360352,0.993992695,0.160645,0.811035,-0.551758,581,582,582,445,88
0,89.3,89300,102521,30.61321289,3061.321289,0.993163393,0.162109,0.810059,-0.55127,581,580,581,444,87
0,89.383,89383,102525,30.61139648,3061.139648,0.992770571,0.161133,0.808105,-0.553711,580,580,582,444,89
0,89.466,89466,102527,30.6111377,3061.11377,0.995092952,0.162598,0.812988,-0.550293,582,581,582,445,88
0,89.55,89550,102523,30.6115918,3061.15918,0.995124636,0.161133,0.812988,-0.550781,582,582,582,444,88
0,89.633,89633,102523,30.60782715,3060.782715,0.991901708,0.156738,0.80957,-0.55127,581,581,581,445,88
0,89.716,89716,102526,30.60860596,3060.860596,0.994374498,0.162109,0.810547,-0.552734,579,580,584,445,88
0,89.8,89800,102526,30.60795654,3060.795654,0.99407168,0.161133,0.811035,-0.551758,581,581,583,444,89
0,89.883,89883,102523,30.60795654,3060.795654,0.996199194,0.161621,0.810547,-0.556152,581,581,580,446,88
0,89.966,89966,102526,30.60490723,3060.490723,0.994390912,0.160645,0.811523,-0.551758,580,581,580,445,87
0,90.05,90050,102529,30.60412842,3060.412842,0.995826267,0.161133,0.811523,-0.554199,582,582,584,445,88
0,90.133,90133,102527,30.60341309,3060.341309,0.996848188,0.164062,0.811523,-0.555176,581,581,584,443,90
0,90.216,90216,102524,30.60367432,3060.367432,0.995729853,0.160645,0.8125,-0.552734,579,582,584,446,88
0,90.3,90300,102525,30.60036377,3060.036377,0.995096558,0.160156,0.813477,-0.550293,582,581,582,446,88
0,90.383,90383,102531,30.60218018,3060.218018,0.993546713,0.161133,0.810059,-0.552246,582,581,582,446,89
0,90.466,90466,102528,30.59796143,3059.796143,0.993976753,0.162109,0.810059,-0.552734,581,582,583,447,89
0,90.55,90550,102525,30.59796143,3059.796143,0.993386802,0.162598,0.80957,-0.552246,581,583,582,447,89
0,90.633,90633,102525,30.59737793,3059.737793,0.997516957,0.161621,0.8125,-0.555664,581,582,583,446,89
0,90.716,90716,102526,30.59750732,3059.750732,0.993131408,0.161133,0.810547,-0.550781,580,581,582,447,88
0,90.8,90800,102526,30.5947168,3059.47168,0.996420061,0.15918,0.813965,-0.552246,582,581,581,447,88
0,90.883,90883,102525,30.59478271,3059.478271,0.992339724,0.158691,0.810059,-0.550781,580,582,583,445,89
0,90.966,90966,102528,30.59588623,3059.588623,0.995971,0.159668,0.812988,-0.552734,581,581,583,448,87
0,91.05,91050,102530,30.59056396,3059.056396,0.996600672,0.15918,0.811523,-0.556152,579,580,581,444,87
0,91.133,91133,102525,30.59192627,3059.192627,0.994775515,0.159668,0.811523,-0.552734,581,580,582,444,88
0,91.216,91216,102526,30.59199219,3059.199219,0.992176012,0.160156,0.80957,-0.550781,580,581,581,445,88
0,91.3,91300,102526,30.58874756,3058.874756,0.994979062,0.162598,0.811523,-0.552246,581,582,582,447,89
0,91.383,91383,102522,30.58848633,3058.848633,0.994065726,0.157715,0.811035,-0.552734,581,581,582,445,89
0,91.467,91467,102529,30.58816162,3058.816162,0.993202658,0.158203,0.810547,-0.551758,580,581,580,443,88
0,91.55,91550,102524,30.58868164,3058.868164,0.99119335,0.158203,0.809082,-0.550293,581,581,582,444,87
0,91.633,91633,102527,30.58829346,3058.829346,0.995283432,0.161133,0.811523,-0.553223,582,582,582,446,88
0,91.716,91716,102527,30.58654053,3058.654053,0.991351702,0.160156,0.810547,-0.547852,582,582,582,444,89
0,91.8,91800,102528,30.58563232,3058.563232,0.993214858,0.15918,0.811035,-0.550781,580,580,582,446,88
0,91.883,91883,102521,30.5842041,3058.42041,0.99330688,0.162109,0.80957,-0.552246,579,581,584,445,89
0,91.966,91966,102524,30.58563232,3058.563232,0.992128576,0.160645,0.809082,-0.55127,582,581,584,444,89
0,92.05,92050,102528,30.58322998,3058.322998,0.994996837,0.161133,0.8125,-0.55127,580,581,582,444,88
0,92.133,92133,102527,30.58297119,3058.297119,0.995808701,0.161133,0.8125,-0.552734,580,581,581,446,90
0,92.216,92216,102521,30.58167236,3058.167236,0.994813277,0.158203,0.811523,-0.553223,581,582,583,445,89
0,92.3,92300,102526,30.58056885,3058.056885,0.993186868,0.158203,0.811523,-0.550293,581,580,581,448,89
0,92.383,92383,102523,30.57862305,3057.862305,0.995508073,0.160156,0.812988,-0.551758,580,581,583,443,89
0,92.466,92466,102526,30.57966064,3057.966064,0.992990017,0.160156,0.80957,-0.552246,583,582,583,445,88
0,92.55,92550,102524,30.57693604,3057.693604,0.994141292,0.15918,0.8125,-0.550293,582,581,583,445,88
0,92.633,92633,102526,30.575896,3057.5896,0.993800899,0.161133,0.811035,-0.55127,581,582,582,447,87
0,92.716,92716,102526,30.5762207,3057.62207,0.996670545,0.160645,0.812988,-0.553711,580,582,582,445,89
0,92.8,92800,102525,30.57518311,3057.518311,0.994680414,0.160645,0.810547,-0.553711,581,581,581,445,87
0,92.883,92883,102524,30.5753125,3057.53125,0.997039909,0.159668,0.813965,-0.553223,581,581,581,446,87
0,92.966,92966,102529,30.57349609,3057.349609,0.994682429,0.15918,0.8125,-0.55127,580,579,582,447,89
0,93.05,93050,102525,30.57252197,3057.252197,0.997213659,0.160645,0.812988,-0.554688,581,580,583,442,88
0,93.133,93133,102528,30.57115967,3057.115967,0.9972452,0.161621,0.8125,-0.555176,581,581,583,444,89
0,93.216,93216,102526,30.57193848,3057.193848,0.995633868,0.161621,0.811523,-0.553711,581,581,583,445,89
0,93.3,93300,102524,30.56830322,3056.830322,0.994487793,0.161133,0.810547,-0.553223,581,580,583,446,90
0,93.383,93383,102531,30.56901611,3056.901611,0.995586859,0.160645,0.812988,-0.551758,582,581,584,446,88
0,93.466,93466,102523,30.56908203,3056.908203,0.993329464,0.159668,0.809082,-0.553711,581,581,582,446,89
0,93.55,93550,102526,30.56707031,3056.707031,0.994932797,0.160645,0.811523,-0.552734,580,580,583,443,88
0,93.633,93633,102527,30.56856201,3056.856201,0.99315104,0.159668,0.811523,-0.549805,581,581,583,446,87
0,93.716,93716,102526,30.56648682,3056.648682,0.993481957,0.161621,0.810547,-0.55127,581,581,584,445,87
0,93.8,93800,102524,30.56415039,3056.415039,0.994727804,0.160156,0.811035,-0.553223,582,581,583,443,88
0,93.883,93883,102524,30.56369629,3056.369629,0.993992695,0.160645,0.811035,-0.551758,580,581,583,445,88
0,93.966,93966,102529,30.56187744,3056.187744,0.996636596,0.162109,0.812988,-0.553223,581,582,583,445,89
0,94.05,94050,102528,30.56103516,3056.103516,0.99374519,0.158203,0.810547,-0.552734,581,581,583,445,89
0,94.133,94133,102527,30.56096924,3056.096924,0.995329844,0.163086,0.811523,-0.552734,582,579,583,444,90
0,94.216,94216,102528,30.56071045,3056.071045,0.994125407,0.159668,0.810059,-0.553711,581,581,582,446,88
0,94.3,94300,102523,30.55791992,3055.791992,0.994155291,0.15918,0.811523,-0.551758,580,580,582,445,88
0,94.383,94383,102524,30.557854,3055.7854,0.991749419,0.160645,0.807617,-0.552734,581,581,583,444,88
0,94.466,94466,102525,30.5563623,3055.63623,0.995900678,0.158203,0.811523,-0.555176,582,581,583,446,88
0,94.55,94550,102526,30.55623291,3055.623291,0.994775515,0.159668,0.811523,-0.552734,581,579,582,443,89
0,94.633,94633,102522,30.55435059,3055.435059,0.997631111,0.15918,0.814453,-0.553711,581,581,582,446,87
0,94.716,94716,102528,30.55370117,3055.370117,0.997071366,0.165527,0.8125,-0.553711,582,581,583,446,88
0,94.8,94800,102526,30.55116943,3055.116943,0.994489734,0.159668,0.8125,-0.550781,582,581,582,445,87
0,94.883,94883,102526,30.55084473,3055.084473,0.993599575,0.162109,0.808594,-0.554199,582,582,583,445,89
0,94.966,94966,102524,30.55084473,3055.084473,0.995316491,0.160645,0.812988,-0.55127,580,582,582,446,88
0,95.05,95050,102520,30.55253174,3055.253174,0.991922926,0.160156,0.808594,-0.551758,581,580,582,443,90
0,95.134,95134,102525,30.55006592,3055.006592,0.997194846,0.163086,0.813477,-0.553223,581,582,584,446,87
0,95.217,95217,102526,30.54922363,3054.922363,0.995881675,0.158203,0.8125,-0.553711,581,581,584,445,89
0,95.3,95300,102524,30.54799072,3054.799072,0.99664076,0.157715,0.811523,-0.556641,581,581,584,445,88
0,95.383,95383,102526,30.5480542,3054.80542,0.992948462,0.158203,0.80957,-0.552734,580,582,583,444,90
0,95.466,95466,102521,30.54578369,3054.578369,0.993227354,0.161621,0.80957,-0.552246,582,581,583,443,88
0,95.55,95550,102526,30.54571777,3054.571777,0.995682208,0.15918,0.810059,-0.556641,581,581,581,445,88
0,95.633,95633,102525,30.54532959,3054.532959,0.99292459,0.163086,0.80957,-0.55127,582,580,582,446,89
0,95.716,95716,102532,30.54383545,3054.383545,0.994390117,0.163086,0.811035,-0.551758,582,582,583,446,88
0,95.8,95800,102524,30.54078613,3054.078613,0.993976753,0.162109,0.810059,-0.552734,582,581,584,443,88
0,95.884,95884,102530,30.54098145,3054.098145,0.993101254,0.160156,0.811035,-0.550293,580,581,583,446,87
0,95.967,95967,102525,30.54104492,3054.104492,0.995940913,0.160156,0.811523,-0.554688,582,582,582,444,88
0,96.05,96050,102529,30.54000732,3054.000732,0.991762873,0.160156,0.810059,-0.549316,582,579,581,444,89
0,96.133,96133,102528,30.53786621,3053.786621,0.992671216,0.160645,0.809082,-0.552246,582,581,583,445,87
0,96.216,96216,102527,30.53922852,3053.922852,0.993450702,0.160645,0.811035,-0.550781,580,582,583,445,88
0,96.3,96300,102526,30.53695557,3053.695557,0.994840588,0.164062,0.810059,-0.553711,581,581,583,444,88
0,96.383,96383,102524,30.53695557,3053.695557,0.994077111,0.158691,0.811523,-0.551758,580,582,583,444,89
0,96.466,96466,102528,30.53598389,3053.598389,0.994697304,0.15918,0.811523,-0.552734,581,581,583,445,88
0,96.55,96550,102526,30.53442627,3053.442627,0.992592198,0.160156,0.809082,-0.552246,581,581,583,443,89
0,96.633,96633,102526,30.53475098,3053.475098,0.992230802,0.158691,0.808594,-0.552734,580,581,581,445,88
0,96.716,96716,102527,30.53267334,3053.267334,0.995018133,0.159668,0.813477,-0.550293,581,580,583,445,87
0,96.8,96800,102528,30.53066162,3053.066162,0.997775561,0.15918,0.813965,-0.554688,581,582,582,446,87
0,96.883,96883,102522,30.53228271,3053.228271,0.993822996,0.158691,0.810547,-0.552734,582,581,582,446,87
0,96.966,96966,102525,30.53020752,3053.020752,0.996576488,0.164062,0.811523,-0.554688,581,582,583,445,88
0,97.05,97050,102528,30.53085693,3053.085693,0.993323647,0.160645,0.810547,-0.55127,580,580,583,445,88
0,97.134,97134,102525,30.52780518,3052.780518,0.996628744,0.158691,0.812988,-0.554199,581,581,583,445,89
0,97.217,97217,102525,30.52657227,3052.657227,0.994819869,0.161621,0.811523,-0.552246,582,582,583,444,90
0,97.301,97301,102529,30.52579346,3052.579346,0.994350193,0.160156,0.80957,-0.554688,581,579,581,444,87
0,97.384,97384,102523,30.52592285,3052.592285,0.993806332,0.158691,0.811523,-0.55127,581,580,581,443,88
0,97.467,97467,102526,30.52585938,3052.585938,0.997450547,0.162109,0.812988,-0.554688,582,582,581,445,88
0,97.55,97550,102525,30.52462646,3052.462646,0.991538103,0.161133,0.808594,-0.550781,580,579,585,447,88
0,97.633,97633,102525,30.52579346,3052.579346,0.992550627,0.158203,0.809082,-0.552734,581,581,582,447,89
0,97.716,97716,102523,30.52241943,3052.241943,0.996704833,0.160156,0.814453,-0.551758,582,581,584,445,88
0,97.8,97800,102526,30.52151123,3052.151123,0.993481957,0.161621,0.810547,-0.55127,580,581,582,444,88
0,97.884,97884,102523,30.52189941,3052.189941,0.996463625,0.161133,0.813965,-0.551758,581,582,583,445,88
0,97.967,97967,102526,30.52086182,3052.086182,0.991174139,0.159668,0.808105,-0.55127,581,580,583,447,89
0,98.05,98050,102529,30.51943359,3051.943359,0.998088995,0.161133,0.813965,-0.554688,580,580,582,444,90
0,98.133,98133,102523,30.51820068,3051.820068,0.995109584,0.160156,0.8125,-0.551758,582,582,583,444,89
0,98.216,98216,102525,30.5187207,3051.87207,0.994041315,0.160156,0.811523,-0.55127,581,581,580,445,88
0,98.3,98300,102526,30.51631836,3051.631836,0.995459045,0.160645,0.8125,-0.552246,583,580,581,446,90
0,98.384,98384,102530,30.51541016,3051.541016,0.994429072,0.160645,0.80957,-0.554688,581,581,581,445,89
0,98.467,98467,102524,30.51249023,3051.249023,0.993261498,0.160156,0.80957,-0.552734,579,581,583,446,87
0,98.551,98551,102530,30.51255371,3051.255371,0.994282792,0.160645,0.810059,-0.553711,580,581,583,445,87
0,98.634,98634,102525,30.51378662,3051.378662,0.996015301,0.161621,0.812988,-0.552246,580,580,581,445,90
0,98.717,98717,102523,30.51067139,3051.067139,0.991821695,0.157227,0.811035,-0.548828,582,581,582,443,89
0,98.8,98800,102528,30.51242432,3051.242432,0.992948462,0.158203,0.80957,-0.552734,581,582,582,445,88
0,98.883,98883,102525,30.51157959,3051.157959,0.994969115,0.15918,0.811523,-0.553223,581,581,582,446,88
0,98.966,98966,102526,30.51054199,3051.054199,0.993196501,0.160645,0.810059,-0.551758,583,581,582,446,87
0,99.05,99050,102523,30.50827148,3050.827148,0.994885573,0.161133,0.811035,-0.553223,581,581,582,445,87
0,99.134,99134,102526,30.50775146,3050.775146,0.997094814,0.158203,0.812988,-0.555176,581,579,583,445,90
0,99.217,99217,102526,30.50710205,3050.710205,0.993770212,0.160156,0.811523,-0.550781,580,580,581,444,88
0,99.3,99300,102523,30.50450684,3050.450684,0.993866921,0.164062,0.811523,-0.549805,580,582,582,445,88
0,99.383,99383,102524,30.50411621,3050.411621,0.992001998,0.160645,0.808594,-0.551758,580,582,582,444,89
0,99.466,99466,102527,30.50515625,3050.515625,0.998279674,0.161621,0.81543,-0.552734,582,581,581,444,88
0,99.55,99550,102524,30.5033374,3050.33374,0.995505525,0.162598,0.8125,-0.551758,581,581,582,447,89
0,99.633,99633,102524,30.50294922,3050.294922,0.993371746,0.160156,0.811035,-0.550781,582,581,584,445,90
0,99.716,99716,102528,30.50236572,3050.236572,0.994549052,0.161621,0.811523,-0.551758,581,581,582,445,88
0,99.8,99800,102527,30.50106689,3050.106689,0.994932002,0.163086,0.811035,-0.552734,580,581,581,446,89
0,99.883,99883,102527,30.50061279,3050.061279,0.997290661,0.162109,0.814453,-0.552246,581,582,582,446,88
0,99.966,99966,102524,30.50126221,3050.126221,0.992723769,0.158691,0.811523,-0.549316,582,583,583,447,87
0,100.05,100050,102523,30.49840576,3049.840576,0.993992695,0.160645,0.811035,-0.551758,582,581,584,446,88
0,100.133,100133,102527,30.49996338,3049.996338,0.996449356,0.161621,0.811523,-0.555176,581,582,583,446,88
0,100.216,100216,102527,30.49665283,3049.665283,0.993832309,0.162109,0.810547,-0.551758,580,582,582,444,88
0,100.3,100300,102526,30.49548584,3049.548584,0.992432326,0.160156,0.810547,-0.549805,581,583,582,445,88
0,100.383,100383,102526,30.49756348,3049.756348,0.99444095,0.161621,0.810059,-0.553711,581,581,580,445,89
0,100.466,100466,102525,30.49587402,3049.587402,0.993467686,0.160645,0.810059,-0.552246,582,581,582,446,89
0,100.55,100550,102526,30.49334473,3049.334473,0.992435187,0.15918,0.809082,-0.552246,580,581,582,446,89
0,100.633,100633,102526,30.4910083,3049.10083,0.993976362,0.163086,0.811523,-0.550293,580,581,582,445,88
0,100.716,100716,102525,30.4911377,3049.11377,0.993310172,0.159668,0.810059,-0.552246,581,580,582,445,87
0,100.8,100800,102524,30.49126709,3049.126709,0.995558794,0.159668,0.813477,-0.55127,580,581,583,444,88
0,100.883,100883,102524,30.48867188,3048.867188,0.994421824,0.161621,0.811035,-0.552246,580,580,582,444,88
0,100.966,100966,102522,30.48834717,3048.834717,0.993310172,0.159668,0.810059,-0.552246,580,581,582,446,89
0,101.05,101050,102524,30.48652832,3048.652832,0.99540257,0.158691,0.813477,-0.55127,581,581,582,444,89
0,101.134,101134,102522,30.48614014,3048.614014,0.99626445,0.158203,0.813965,-0.552246,581,580,582,445,88
0,101.218,101218,102527,30.48510254,3048.510254,0.993999326,0.158203,0.811523,-0.551758,583,581,582,445,90
0,101.301,101301,102522,30.48614014,3048.614014,0.995521661,0.162598,0.811523,-0.553223,581,579,582,443,90
0,101.384,101384,102530,30.48445312,3048.445312,0.993897281,0.161621,0.810059,-0.552734,582,581,583,445,90
0,101.467,101467,102528,30.48685303,3048.685303,0.99121076,0.158203,0.808105,-0.551758,581,579,583,446,89
0,101.55,101550,102526,30.48412842,3048.412842,0.996144143,0.163086,0.811523,-0.554199,581,582,581,446,90
0,101.633,101633,102527,30.48341309,3048.341309,0.995329844,0.163086,0.811523,-0.552734,582,582,582,446,89
0,101.717,101717,102530,30.48172607,3048.172607,0.991331993,0.160645,0.808105,-0.55127,579,581,583,443,89
0,101.8,101800,102525,30.48055908,3048.055908,0.994775515,0.159668,0.811523,-0.552734,581,581,581,445,88
0,101.884,101884,102526,30.47835205,3047.835205,0.993010611,0.160156,0.808594,-0.553711,580,580,582,443,88
0,101.967,101967,102524,30.47913086,3047.913086,0.991658367,0.157715,0.809082,-0.55127,581,580,584,443,88
0,102.05,102050,102524,30.48049316,3048.049316,0.994933778,0.161621,0.812988,-0.550293,582,581,583,443,88
0,102.133,102133,102527,30.47900146,3047.900146,0.994642383,0.157227,0.8125,-0.551758,579,579,582,445,89
0,102.216,102216,102524,30.47861084,3047.861084,0.995681536,0.163574,0.811523,-0.553223,580,582,582,446,87
0,102.3,102300,102523,30.47770264,3047.770264,0.992994437,0.158691,0.811523,-0.549805,580,582,583,445,90
